aX,aY,aZ,gX,gY,gZ
0.152,0.897,0.573,64.120,556.710,26.600
0.022,-0.529,3.329,21.910,284.410,-39.830
0.078,-0.522,4.348,-119.840,46.760,-116.340
0.233,-0.090,4.353,-73.150,-254.800,-119.560
0.312,0.227,0.287,-45.010,-179.060,-87.710
0.438,0.504,-0.285,-9.520,-19.390,-20.370
0.487,0.423,0.818,-2.380,35.770,7.420
0.422,0.018,1.664,-15.890,0.630,-5.530
0.466,-0.212,1.421,-30.310,-12.250,-48.650
0.516,-0.016,1.194,-34.300,-6.580,-41.510
0.573,0.203,1.220,-27.090,-5.110,-28.700
0.727,0.238,1.281,-18.200,-22.120,-12.740
0.807,0.017,1.094,-12.390,-25.620,-21.700
0.875,-0.119,0.978,-16.870,-22.960,-33.320
0.974,0.020,1.014,-17.920,-28.210,-35.000
1.039,0.192,0.993,-22.400,-43.610,-29.120
1.025,0.254,1.004,-10.430,-57.680,-24.360
1.087,0.249,0.948,-9.380,-68.530,-29.120
1.140,0.401,0.726,-21.280,-62.300,-28.420
1.140,0.621,0.520,-34.300,-36.190,-19.670
1.134,0.839,0.538,-41.790,-12.530,0.210
1.161,1.000,0.696,-46.830,1.190,38.710
1.184,1.087,0.847,-44.870,-0.350,78.190
1.226,0.798,0.728,-35.490,2.380,99.890
1.199,0.331,0.593,-43.400,35.910,87.290
1.042,0.259,0.805,-53.970,63.560,75.530
0.860,0.484,1.260,-26.740,76.790,90.930
0.802,0.426,1.746,30.800,58.870,103.110
0.793,-0.168,1.885,20.930,23.100,68.040
0.740,-0.439,1.586,-1.610,-3.990,15.680
0.511,-0.267,1.098,-32.060,-9.030,-17.430
0.456,0.120,0.910,-55.580,-1.820,-19.320
0.354,0.307,0.874,-78.540,7.070,-8.050
0.313,0.231,0.949,-93.100,4.830,-1.260
0.238,0.035,0.786,-111.440,-12.180,-3.640
-0.017,-0.188,0.555,-132.230,-3.290,-21.420
-0.254,-0.169,0.435,-139.790,19.810,-37.800
-0.474,0.061,0.564,-137.620,50.120,-32.830
-0.937,0.407,1.143,-107.730,60.550,-4.760
-1.255,0.577,1.683,-29.050,37.100,38.710
-1.366,0.229,1.778,5.040,1.050,43.120
-1.316,0.069,1.576,18.480,-32.270,42.210
-1.212,0.086,1.185,17.010,-62.440,48.650
-1.151,0.139,0.993,-1.330,-83.370,60.410
-1.185,0.168,0.770,-52.920,-99.610,81.550
-1.240,0.111,0.485,-83.160,-95.410,99.050
-1.251,-0.063,0.356,-98.560,-64.610,117.530
-1.257,-0.361,0.507,-110.040,-58.100,132.440
-1.245,-1.153,0.407,-118.720,-58.730,99.260
-1.310,-1.849,-0.210,-74.690,28.280,-10.220
-1.158,-1.895,0.436,-136.290,69.160,-125.160
-1.265,-0.710,0.760,-112.560,71.050,-165.970
-1.015,0.122,0.911,-85.120,53.970,-133.980
-0.978,0.523,0.606,-76.440,49.840,-86.800
-1.025,0.444,0.364,-79.520,67.550,-54.180
-0.914,0.137,0.307,-66.290,87.920,-28.700
-0.799,0.005,0.493,-49.910,89.460,-7.980
-0.837,-0.182,0.703,-30.590,67.480,4.690
-0.779,-0.369,0.707,-30.380,51.380,10.920
-0.715,-0.702,0.571,-32.620,51.100,2.800
-0.687,-0.868,0.497,-56.280,66.850,-23.870
-0.705,-0.837,0.720,-95.340,88.340,-50.680
-0.657,-0.504,0.969,-124.530,90.650,-47.670
-0.586,-0.285,1.234,-139.160,77.210,-28.420
-0.596,-0.402,1.270,-134.750,55.930,-30.030
-0.563,-0.560,1.012,-136.640,67.480,-47.740
-0.499,-0.273,1.106,-122.920,79.660,-50.610
-0.441,0.029,1.391,-93.030,69.300,-29.680
-0.406,0.123,1.534,-54.810,46.270,-3.570
-0.369,-0.059,1.606,-18.830,31.080,9.520
-0.381,-0.348,1.719,1.400,4.480,5.460
-0.387,-0.392,1.576,4.830,-21.770,5.390
-0.343,-0.405,1.114,8.190,-27.230,12.180
-0.357,-0.522,1.027,10.850,-27.440,9.380
-0.384,-0.635,0.962,-0.140,-29.610,-1.680
-0.324,-0.528,0.936,-5.740,-36.050,4.760
-0.313,-0.553,0.712,-0.630,-49.000,5.670
-0.274,-0.626,0.439,-5.460,-40.320,2.380
-0.274,-0.658,0.303,-5.810,-23.170,-3.990
-0.275,-0.585,0.352,-3.570,-6.090,-6.860
-0.254,-0.493,0.409,-3.010,8.400,-6.300
-0.193,-0.346,0.623,16.100,15.470,9.310
-0.205,-0.454,0.923,33.250,0.770,8.470
-0.127,-0.575,0.832,31.010,-0.910,0.490
-0.208,-0.444,0.884,31.430,4.480,6.720
-0.221,-0.404,1.062,32.060,-0.070,11.340
-0.227,-0.561,1.128,27.510,-4.060,0.980
-0.227,-0.490,1.182,19.950,-10.080,-3.150
-0.218,-0.336,1.138,19.390,-18.270,1.820
-0.214,-0.281,1.091,19.460,-20.230,7.560
-0.228,-0.258,1.068,15.680,-22.470,11.690
-0.241,-0.253,1.061,13.580,-24.290,14.280
-0.253,-0.210,1.020,8.330,-26.390,21.280
-0.272,-0.161,0.978,8.400,-25.410,35.490
-0.295,-0.258,0.960,9.450,-22.610,41.860
-0.342,-0.414,0.954,6.580,-21.000,38.290
-0.386,-0.479,0.947,-0.980,-13.370,32.900
-0.432,-0.419,1.003,5.180,-12.460,35.700
-0.474,-0.448,1.051,1.190,-13.230,33.180
-0.525,-0.525,1.104,-8.750,-12.880,23.030
-0.576,-0.488,1.099,-19.250,-14.840,18.480
-0.592,-0.334,1.040,-18.620,-10.990,26.390
-0.632,-0.327,1.220,-12.250,-14.840,35.280
-0.693,-0.420,1.334,-7.070,-31.850,42.910
-0.754,-0.715,1.210,-0.700,-44.940,39.480
-0.765,-0.906,0.913,1.120,-34.580,19.320
-0.735,-0.952,0.988,9.380,-20.790,-0.700
-0.757,-0.840,1.040,53.200,-31.640,-21.140
-0.751,-0.751,0.802,55.510,-31.010,-44.030
-0.743,-0.394,0.643,61.530,-17.080,-53.340
-0.784,0.261,0.757,58.520,-31.780,-20.230
-0.824,0.704,0.483,45.080,-42.210,64.330
-0.906,0.386,0.067,32.830,-21.840,104.300
-1.004,-0.152,0.088,2.520,15.050,109.270
-1.097,-0.343,0.514,-37.450,25.690,117.670
-1.127,-0.651,1.035,-56.280,19.810,123.060
-1.102,-1.009,1.515,-50.260,-15.610,107.590
-1.143,-1.362,1.629,-40.040,-72.520,68.250
-1.181,-1.578,1.414,-21.700,-102.480,-9.520

-1.107,-0.991,0.933,14.210,-116.900,-49.350
-0.956,-0.375,0.640,34.090,-114.520,-47.110
-0.768,0.121,0.360,40.390,-108.360,-24.570
-0.673,0.516,0.187,25.410,-102.550,27.930
-0.591,0.543,-0.018,-1.260,-90.930,68.110
-0.510,0.365,-0.159,-25.340,-54.810,97.160
-0.490,0.024,0.111,-52.780,-37.590,105.700
-0.518,-0.456,0.588,-71.120,-31.850,91.350
-0.519,-0.594,0.907,-54.530,-42.210,71.050
-0.517,-0.614,1.089,-61.110,-59.220,58.100
-0.455,-0.594,0.980,-46.900,-77.350,51.030
-0.267,-0.718,0.716,-29.960,-74.830,28.490
-0.155,-0.809,0.588,-20.230,-66.220,4.830
-0.102,-0.573,0.461,-23.730,-51.170,-6.720
0.040,-0.271,0.456,-30.310,-29.190,14.560
0.120,0.000,0.707,-25.130,-23.310,17.220
0.097,-0.003,0.834,-18.620,-27.580,27.090
0.046,-0.072,0.603,-17.360,-9.940,33.320
0.085,-0.172,0.571,-9.100,22.890,36.050
0.126,-0.382,0.953,1.890,44.870,31.500
0.155,-0.518,1.448,19.110,36.470,28.490
0.222,-0.743,1.676,32.830,-3.430,16.450
0.345,-1.051,1.491,41.580,-26.740,-13.790
0.409,-1.159,1.204,30.660,-39.200,-56.910
0.453,-0.917,0.890,6.650,-30.520,-73.640
0.567,-0.717,0.824,-7.910,-0.490,-83.160
0.677,-0.500,0.982,-15.750,-14.000,-83.440
0.681,-0.304,1.113,-18.480,-15.050,-73.990
0.669,-0.085,1.213,-9.870,-18.130,-59.570
0.619,0.067,1.305,2.100,-26.250,-37.590
0.594,0.159,1.256,21.070,-23.170,-11.760
0.586,0.084,1.343,47.460,-17.990,14.910
0.573,-0.075,1.564,68.670,-25.900,24.990
0.593,-0.219,1.683,79.170,-52.290,27.930
0.597,-0.352,1.569,83.230,-76.650,25.550
0.589,-0.393,1.067,91.350,-82.110,31.500
0.590,-0.713,0.535,80.990,-55.650,14.280
0.744,-0.983,0.408,52.220,-5.600,-21.070
0.630,-0.998,0.698,28.420,11.060,-54.180
0.605,-0.780,0.908,16.870,9.940,-74.690
0.604,-0.494,0.954,16.450,3.920,-78.330
0.584,-0.394,0.835,23.450,5.880,-78.890
0.557,-0.348,0.819,33.530,12.740,-78.540
0.560,-0.317,0.830,32.830,11.900,-78.960
0.544,-0.254,0.756,37.450,13.580,-77.560
0.514,-0.236,0.639,36.470,22.890,-75.950
0.501,-0.235,0.620,30.660,41.790,-75.110
0.468,-0.275,0.717,24.360,52.850,-77.490
0.432,-0.321,0.866,16.380,58.030,-81.900
0.433,-0.320,1.041,1.820,54.180,-85.960
0.420,-0.293,1.155,-4.200,39.410,-85.680
0.414,-0.322,1.047,-10.990,26.390,-88.480
0.471,-0.280,0.911,-13.020,26.880,-86.450
0.488,-0.256,0.855,-5.390,33.670,-81.130
0.458,-0.286,0.895,9.870,41.510,-78.960
0.434,-0.345,1.015,24.430,44.590,-80.780
0.431,-0.364,1.164,41.510,40.320,-80.220
0.451,-0.346,1.322,53.340,24.080,-77.910
0.447,-0.352,1.296,65.240,10.500,-78.190
0.422,-0.364,1.217,68.040,-0.420,-81.760
0.359,-0.333,1.123,54.600,-6.230,-87.360
0.345,-0.193,1.009,32.690,-5.670,-84.350
0.338,0.055,0.986,18.060,-4.340,-72.030
0.328,0.133,0.874,6.510,-5.670,-57.050
0.327,0.127,0.955,-0.350,-4.410,-42.280
0.330,0.067,0.908,-5.040,3.570,-27.510
0.324,-0.025,0.969,2.380,11.830,-17.220
0.333,-0.143,1.079,14.700,15.260,-12.740
0.325,-0.265,1.185,26.040,11.620,-14.210
0.314,-0.299,1.170,39.130,10.500,-14.560
0.290,-0.337,1.185,55.580,9.240,-17.430
0.254,-0.352,1.245,57.750,1.820,-22.400
0.221,-0.291,1.200,55.090,-9.100,-23.660
0.217,-0.225,1.096,48.720,-11.900,-22.820
0.223,-0.170,1.014,35.350,-13.440,-18.970
0.216,-0.178,0.912,27.650,-10.920,-18.340
0.208,-0.141,0.842,14.630,-1.750,-15.050
0.202,-0.086,0.928,12.670,4.060,-8.050
0.209,-0.126,1.086,10.570,-0.420,-4.550
0.186,-0.224,1.056,11.200,-1.750,-6.720
0.186,-0.243,0.993,14.350,1.750,-9.520
0.173,-0.250,0.993,17.640,7.490,-13.720
0.153,-0.191,1.043,22.260,8.540,-15.260
0.122,-0.115,1.106,27.930,5.810,-12.670
0.112,-0.055,1.127,32.060,0.490,-9.380
0.105,-0.027,1.097,32.130,-7.840,-5.460
0.124,0.008,1.015,28.910,-12.810,0.700
0.129,0.004,0.907,20.300,-12.880,7.000
0.125,-0.039,0.838,12.390,-9.240,10.710
0.136,-0.056,0.812,4.550,-4.270,13.720
0.146,-0.075,0.854,1.400,3.780,17.010
0.132,-0.086,0.908,0.840,4.900,20.370
0.112,-0.157,0.879,-1.890,12.250,17.500
0.103,-0.182,0.993,0.560,16.800,17.150
0.100,-0.173,1.155,2.590,10.010,16.590
0.088,-0.205,1.154,5.950,3.850,13.510
0.089,-0.195,1.083,8.400,1.960,10.920
0.114,-0.152,1.059,12.320,0.490,10.850
0.128,-0.114,1.020,15.330,0.000,12.250
0.148,-0.063,0.985,18.410,2.660,15.400
0.163,-0.046,1.035,18.410,2.100,18.200
0.183,-0.038,1.066,15.260,-2.310,22.400
0.221,-0.060,1.015,11.130,-3.360,24.780
0.241,-0.100,0.959,5.740,0.910,25.480
0.271,-0.099,0.993,-0.420,4.270,27.020
0.315,-0.132,1.028,-1.750,5.040,26.740
0.350,-0.194,1.023,-1.260,9.310,23.030
0.380,-0.206,1.050,0.490,14.210,19.460
0.414,-0.194,1.150,4.410,15.610,17.570
0.451,-0.220,1.245,11.060,9.660,10.850
0.493,-0.215,1.192,14.560,7.560,4.900
0.536,-0.121,1.187,18.410,9.030,3.780
0.565,0.016,1.263,21.630,-1.190,7.140
0.622,0.121,1.146,24.080,-5.110,13.650
0.655,0.200,1.033,21.070,-3.150,24.290
0.667,0.178,0.976,9.800,4.060,30.940
0.657,0.131,1.091,-5.460,10.990,31.990
0.660,0.255,1.343,-14.140,-17.080,43.680
0.699,0.277,1.292,-16.380,-12.530,55.930

0.653,-0.292,2.189,-42.210,37.240,98.840
0.630,-0.945,1.972,19.110,-3.920,56.280
0.626,-1.057,1.106,42.840,-4.130,18.900
0.555,-0.753,0.817,38.150,5.880,5.880
0.483,-0.483,0.709,25.130,6.860,12.740
0.401,-0.599,0.550,-14.770,6.160,7.140
0.304,-1.033,0.383,-45.150,11.550,-17.080
0.174,-1.224,0.236,-77.490,27.860,-50.120
-0.042,-1.224,0.210,-107.100,39.830,-84.840
-0.280,-0.748,0.188,-114.380,59.500,-104.090
-0.683,-0.216,0.762,-90.860,109.130,-92.330
-1.211,0.116,2.038,-34.650,85.470,-72.940
-1.404,0.271,2.849,33.320,-5.950,-38.780
-1.452,0.402,2.514,72.030,-157.640,4.480
-1.359,-0.334,0.471,179.830,-96.810,-39.480
-0.847,-0.027,0.602,-26.460,-58.590,43.960
-1.589,0.637,1.223,56.210,-137.270,103.110
-1.427,-0.813,-0.176,-21.490,-141.260,50.540
-1.540,-0.799,-0.910,-77.980,-33.810,27.440
-1.510,-0.841,-0.489,-153.860,10.780,21.840
-1.570,-1.145,-0.790,-165.480,69.160,5.740
-1.765,-1.702,-0.884,-182.840,162.260,-65.380
-1.863,-1.614,-0.148,-201.180,245.630,-163.380
-1.804,-0.646,1.359,-175.000,208.740,-159.110
-1.512,-0.074,1.347,-98.700,155.750,-119.560
-1.344,0.034,0.883,-63.840,160.580,-99.330
-1.219,0.093,1.132,-34.160,156.240,-74.620
-0.992,0.075,1.333,0.840,119.490,-48.300
-0.946,-0.124,1.023,22.330,105.070,-36.820
-0.929,-0.345,0.893,14.000,117.180,-40.740
-0.867,-0.161,1.216,-1.820,107.240,-29.190
-0.694,-0.094,1.238,-21.210,99.400,-15.120
-0.636,-0.154,1.370,-54.880,96.950,-0.140
-0.593,-0.291,1.657,-73.570,74.970,5.670
-0.511,-0.453,1.816,-82.110,34.790,1.470
-0.470,-0.547,1.728,-80.080,0.910,-3.290
-0.425,-0.466,1.399,-67.060,-24.570,1.680
-0.415,-0.476,0.936,-57.610,-32.200,5.810
-0.416,-0.483,0.554,-54.810,-16.310,11.970
-0.422,-0.521,0.588,-60.550,-6.510,16.520
-0.444,-0.597,0.770,-49.070,-11.550,16.940
-0.459,-0.632,0.783,-36.680,-28.000,16.100
-0.388,-0.564,0.584,-23.520,-28.770,25.060
-0.409,-0.708,0.463,3.150,-24.920,20.020
-0.376,-0.772,0.374,7.840,-13.580,11.410
-0.305,-0.546,0.490,24.080,-5.810,24.920
-0.293,-0.630,0.603,44.380,-5.530,24.780
-0.316,-0.844,0.699,41.440,-5.740,4.900
-0.327,-0.673,0.756,38.990,-4.200,5.250
-0.314,-0.613,0.853,38.640,-4.830,5.670
-0.295,-0.698,0.951,37.870,-11.620,-4.060
-0.274,-0.683,0.901,39.130,-14.140,-15.960
-0.246,-0.420,0.874,43.400,-14.280,-9.870
-0.235,-0.312,0.856,47.460,-18.340,-0.420
-0.238,-0.349,0.768,50.260,-18.550,2.310
-0.228,-0.353,0.693,40.600,-15.750,8.190
-0.224,-0.287,0.644,28.140,-9.800,18.480
-0.234,-0.295,0.669,13.790,-6.230,28.770
-0.246,-0.415,0.674,-7.700,-0.700,31.360
-0.250,-0.555,0.784,-21.140,1.540,30.450
-0.246,-0.595,0.914,-23.310,-8.330,31.430
-0.211,-0.721,0.851,-16.520,-8.750,19.810
-0.172,-0.829,0.894,-6.440,-11.410,9.660
-0.147,-0.722,0.895,4.340,-23.380,8.400
-0.151,-0.687,0.747,11.200,-22.820,6.790
-0.168,-0.676,0.653,13.440,-13.860,3.710
-0.192,-0.561,0.733,12.530,-9.870,8.120
-0.213,-0.512,0.795,14.210,-7.630,15.120
-0.230,-0.586,0.862,19.740,-5.810,16.310
-0.277,-0.650,0.974,24.150,-8.330,12.950
-0.329,-0.646,1.040,31.010,-10.290,11.270
-0.383,-0.647,1.139,36.190,-15.680,8.680
-0.352,-0.710,1.105,45.710,-16.730,-0.700
-0.268,-0.679,1.167,55.720,-21.700,-14.070
-0.261,-0.473,1.145,67.900,-31.150,-10.990
-0.251,-0.397,0.949,77.560,-26.880,-8.610
-0.275,-0.332,0.994,72.170,-27.720,-3.220
-0.318,-0.149,0.946,66.780,-27.370,12.880
-0.347,-0.098,0.967,54.530,-23.730,31.710
-0.428,-0.172,1.097,43.820,-27.720,47.670
-0.499,-0.301,1.222,41.160,-36.890,57.750
-0.576,-0.443,1.270,41.790,-40.390,64.750
-0.681,-0.573,1.444,59.010,-43.610,69.790
-0.751,-0.843,1.640,98.560,-57.470,53.270
-0.753,-1.275,1.637,129.150,-83.510,16.100
-0.682,-1.379,1.169,133.910,-100.100,-29.120
-0.578,-1.101,0.804,141.050,-92.470,-54.950
-0.572,-0.609,0.606,139.440,-85.470,-70.280
-0.534,-0.267,0.453,115.920,-73.290,-71.190
-0.520,0.186,0.499,89.460,-62.090,-48.650
-0.552,0.587,0.530,55.580,-63.070,-0.840
-0.544,0.598,0.344,13.440,-49.070,71.540
-0.531,0.000,0.307,-5.110,-18.270,87.990
-0.660,-0.636,0.807,-22.330,6.370,73.430
-0.740,-1.013,1.237,-21.140,5.110,44.170
-0.775,-1.115,1.507,11.620,-16.170,9.170
-0.809,-1.190,1.442,43.540,-37.030,-24.430
-0.865,-1.050,1.217,67.060,-47.530,-55.300
-0.850,-0.589,1.057,96.460,-56.140,-60.620
-0.724,-0.015,0.731,109.970,-54.250,-46.900
-0.587,0.231,0.529,109.060,-45.360,-31.220
-0.501,0.480,0.559,93.520,-52.220,-2.240
-0.502,0.813,0.461,54.320,-56.840,36.890
-0.510,0.937,0.360,26.950,-51.450,88.340
-0.540,0.707,0.445,7.980,-42.490,123.970
-0.605,0.194,0.648,-11.200,-43.960,130.900
-0.638,-0.321,0.789,-29.120,-51.240,120.680
-0.645,-0.503,0.834,-33.390,-56.420,104.720
-0.646,-0.568,0.835,-29.610,-60.830,88.130
-0.611,-0.478,0.801,-0.980,-63.000,77.980
-0.558,-0.354,0.682,2.660,-63.910,72.380
-0.450,-0.270,0.382,19.110,-45.780,69.160
-0.326,-0.121,0.342,36.680,-31.640,74.270
-0.290,-0.047,0.379,55.790,-19.460,81.200
-0.276,-0.067,0.448,59.220,-11.690,81.620
-0.249,-0.060,0.445,51.240,-3.220,82.600
-0.244,-0.038,0.434,38.290,8.330,85.120
-0.267,-0.090,0.600,18.830,19.460,82.950
-0.298,-0.267,0.905,7.350,16.520,72.100

0.764,0.567,1.320,-23.380,-20.650,56.840
0.775,0.297,1.329,-34.370,-17.220,67.620
0.728,-0.049,1.591,-44.240,-18.340,60.200
0.750,-0.072,1.823,-36.750,-44.100,60.620
0.831,-0.174,1.459,-19.460,-56.840,57.610
0.829,-0.323,1.298,-7.210,-52.430,40.390
0.828,-0.098,1.310,-4.340,-59.710,27.930
0.870,0.366,1.171,11.200,-75.670,59.430
0.962,0.366,0.625,38.430,-78.260,89.460
1.054,-0.094,0.399,43.190,-60.970,83.580
1.023,-0.319,0.339,18.550,-51.590,67.830
1.045,-0.219,0.110,-10.710,-26.530,57.680
1.001,-0.028,0.085,-56.280,39.480,61.460
0.842,0.297,0.665,-56.770,58.030,86.730
0.739,0.231,1.124,-50.960,53.270,100.590
0.683,-0.111,1.209,-42.840,48.860,82.250
0.687,-0.293,1.208,-44.520,46.830,66.430
0.665,-0.163,1.134,-37.800,46.130,66.640
0.661,-0.155,0.887,-34.650,47.040,72.590
0.641,-0.405,0.592,-43.400,67.130,62.930
0.567,-0.606,0.519,-46.270,96.880,37.170
0.481,-0.306,0.813,-62.790,111.020,25.970
0.344,0.046,1.096,-63.700,109.480,44.380
0.197,0.027,1.309,-49.560,97.580,58.310
0.030,-0.399,1.398,-52.430,98.140,41.580
-0.064,-0.698,1.749,-60.970,85.960,2.730
-0.087,-0.818,2.132,-61.180,35.210,-28.280
-0.087,-0.897,1.628,-63.490,-28.070,-67.830
-0.125,-0.631,0.955,-75.250,-31.710,-88.970
-0.140,0.004,0.612,-77.490,-29.330,-66.430
-0.163,0.063,0.412,-74.060,-28.560,-48.370
-0.333,-0.045,0.236,-69.580,-26.670,-36.610
-0.512,-0.107,0.180,-83.020,-27.930,-26.460
-0.682,-0.052,0.103,-92.260,-17.360,-14.700
-0.904,0.064,0.294,-96.180,-11.970,10.430
-1.066,0.017,0.590,-97.510,-33.880,51.030
-1.258,-0.614,0.391,-111.160,-63.280,69.090
-2.711,-2.004,-1.297,79.730,-58.380,-57.890
-0.922,-2.176,-1.144,-280.560,156.170,-172.200
-1.781,0.100,0.357,-149.030,164.570,-56.350
-2.048,-1.040,1.318,-101.920,85.470,-129.640
-1.705,-0.817,0.471,-179.130,138.600,-148.260
-1.767,0.245,1.006,-118.510,124.110,-98.630
-1.704,0.219,0.821,-107.590,131.320,-63.140
-1.626,0.175,0.708,-70.560,159.950,-31.290
-1.405,-0.030,1.091,-25.830,153.440,-12.880
-1.307,-0.614,1.090,23.660,146.930,-27.440
-1.121,-0.919,1.075,60.130,141.190,-51.940
-0.941,-0.998,1.142,90.370,122.990,-77.490
-0.862,-0.789,1.187,99.820,102.480,-88.830
-0.845,-0.279,1.159,94.010,81.760,-72.310
-0.737,-0.138,1.027,70.770,76.580,-44.730
-0.651,-0.305,1.128,36.470,60.340,-34.160
-0.615,-0.597,1.064,-0.560,50.330,-41.020
-0.557,-0.587,0.985,-44.940,46.200,-43.050
-0.495,-0.451,0.973,-69.160,37.310,-33.810
-0.433,-0.436,0.826,-86.310,26.740,-24.990
-0.389,-0.451,0.695,-94.220,28.420,-13.440
-0.333,-0.406,0.724,-96.600,30.590,-0.420
-0.333,-0.380,0.847,-90.090,25.970,14.420
-0.341,-0.487,0.947,-85.120,23.240,23.590
-0.372,-0.691,1.154,-77.280,13.580,17.920
-0.372,-0.868,1.300,-60.060,-7.070,10.360
-0.358,-0.912,1.132,-41.230,-26.040,2.240
-0.337,-0.964,0.997,-24.430,-27.370,-12.530
-0.357,-0.768,1.023,-5.390,-36.400,-12.110
-0.361,-0.648,0.794,13.020,-39.900,-6.300
-0.375,-0.689,0.691,24.290,-34.020,-8.610
-0.398,-0.663,0.651,24.710,-28.840,-14.000
-0.351,-0.504,0.635,26.460,-24.640,-6.370
-0.305,-0.459,0.577,26.740,-19.810,0.350
-0.298,-0.520,0.533,21.140,-14.560,1.190
-0.303,-0.508,0.505,7.980,-7.140,5.180
-0.275,-0.498,0.515,6.790,4.060,12.460
-0.258,-0.602,0.830,0.910,-1.260,14.210
-0.253,-0.721,0.790,-6.230,-4.830,12.110
-0.250,-0.916,0.747,-10.360,3.360,-1.330
-0.237,-0.944,0.912,-12.390,1.610,-13.370
-0.203,-0.878,0.949,-6.790,-3.430,-21.770
-0.191,-0.720,0.942,6.160,-4.130,-26.390
-0.207,-0.599,0.995,8.890,-7.350,-26.740
-0.197,-0.461,0.968,10.010,-11.060,-21.700
-0.189,-0.355,0.937,11.480,-12.950,-9.590
-0.190,-0.346,0.917,10.920,-14.980,-1.820
-0.190,-0.379,0.892,3.640,-18.410,3.150
-0.184,-0.366,0.829,-6.440,-15.610,12.110
-0.177,-0.410,0.844,-11.830,-13.650,25.130
-0.180,-0.581,0.874,-14.140,-14.280,25.620
-0.192,-0.723,0.880,-20.020,-14.350,20.510
-0.183,-0.748,0.864,-25.410,-13.440,18.130
-0.188,-0.736,0.855,-19.250,-13.720,19.460
-0.200,-0.814,0.846,-12.180,-13.510,14.840
-0.220,-0.877,0.868,-9.310,-16.870,4.340
-0.231,-0.816,0.822,-1.610,-21.210,0.280
-0.234,-0.739,0.709,1.400,-18.970,-0.210
-0.245,-0.682,0.698,4.480,-15.750,0.070
-0.250,-0.632,0.711,6.790,-15.960,2.940
-0.252,-0.583,0.673,12.110,-13.860,6.230
-0.264,-0.567,0.644,17.850,-5.180,10.500
-0.278,-0.578,0.714,21.630,0.210,12.670
-0.291,-0.582,0.833,29.890,-0.490,14.630
-0.321,-0.584,0.873,37.450,-7.000,13.300
-0.357,-0.521,0.803,40.670,-6.160,16.590
-0.388,-0.435,0.733,44.450,-1.050,26.250
-0.429,-0.468,0.748,44.450,3.430,28.840
-0.481,-0.485,0.793,43.120,3.710,30.380
-0.491,-0.500,0.793,37.450,6.650,32.200
-0.511,-0.622,0.865,35.490,9.660,25.340
-0.549,-0.692,1.028,35.910,1.540,12.670
-0.548,-0.615,1.084,35.560,-15.680,6.790
-0.524,-0.402,0.970,38.290,-30.030,18.900
-0.576,-0.490,0.680,38.150,-27.790,28.000
-0.651,-0.725,0.499,34.160,-12.250,19.180
-0.700,-0.766,0.552,25.340,-0.980,10.990
-0.750,-0.579,0.564,23.730,8.890,14.630
-0.817,-0.303,0.654,34.160,18.970,30.310
-0.876,-0.212,0.867,55.930,19.040,43.400
-0.917,-0.211,1.081,79.940,7.980,50.890
-0.986,-0.174,1.215,103.530,-1.400,62.020

-0.996,-0.333,1.340,132.230,-21.000,69.580
-1.003,-0.610,1.342,152.950,-42.280,57.190
-0.981,-0.640,1.132,156.940,-57.400,53.480
-0.941,-0.612,0.666,152.740,-58.730,53.340
-0.951,-0.670,0.460,134.540,-43.820,43.890
-0.956,-0.526,0.602,90.790,-44.590,40.950
-0.925,-0.210,0.654,56.700,-59.430,59.430
-0.930,-0.122,0.512,37.660,-63.910,80.430
-0.968,-0.523,0.399,11.970,-60.830,71.050
-0.979,-0.698,0.333,-1.960,-51.240,51.170
-0.904,-0.616,0.493,-10.850,-34.020,39.830
-0.818,-0.361,0.872,-6.020,-37.590,46.550
-0.722,-0.418,1.221,2.730,-63.280,41.510
-0.609,-0.566,1.151,5.740,-96.670,25.970
-0.561,-0.555,0.911,-2.100,-104.510,12.040
-0.456,-0.438,0.684,-9.660,-107.940,10.640
-0.367,-0.545,0.440,-25.830,-96.180,-0.140
-0.364,-0.581,0.343,-47.320,-80.360,-13.650
-0.346,-0.369,0.488,-68.530,-68.180,-11.620
-0.318,-0.359,0.873,-69.790,-73.360,-9.660
-0.270,-0.500,0.782,-59.080,-72.450,-15.820
-0.237,-0.658,0.779,-49.070,-58.380,-43.750
-0.123,-0.375,1.097,-41.370,-62.580,-45.710
0.049,-0.041,1.132,-35.630,-74.270,-28.070
0.138,-0.012,1.041,-32.340,-73.780,-14.700
0.236,-0.183,1.068,-30.240,-77.980,-15.820
0.381,-0.176,1.022,-25.060,-85.260,-13.580
0.422,-0.146,0.806,-20.580,-80.780,-7.840
0.424,-0.194,0.618,-21.140,-57.680,-6.370
0.616,-0.280,0.961,-21.770,-44.030,-8.400
0.562,-0.309,1.183,-21.630,-59.780,-11.060
0.576,-0.250,1.111,-15.890,-65.380,-6.300
0.593,-0.171,1.070,-17.430,-61.530,4.550
0.610,-0.188,1.270,-15.400,-69.300,14.000
0.606,-0.203,1.307,-9.940,-84.070,22.400
0.612,-0.110,1.179,2.380,-90.650,46.900
0.615,-0.007,1.068,18.200,-94.500,70.980
0.576,-0.055,0.890,32.690,-96.950,92.680
0.516,-0.230,0.651,45.290,-82.110,106.050
0.525,-0.452,0.625,70.980,-67.480,110.670
0.550,-0.916,0.654,58.030,-56.420,95.200
0.569,-1.215,0.752,53.760,-47.880,67.760
0.575,-1.360,0.949,46.340,-54.950,37.310
0.593,-1.398,0.871,39.550,-65.800,9.100
0.600,-1.465,0.572,6.650,-62.860,-38.920
0.561,-1.386,0.224,5.810,-36.750,-71.820
0.531,-0.970,0.164,2.730,1.330,-80.640
0.486,-0.665,0.366,2.240,25.690,-79.240
0.421,-0.502,0.764,7.140,35.280,-76.650
0.367,-0.333,1.121,-3.150,23.380,-68.950
0.350,-0.142,1.177,10.500,6.860,-46.760
0.363,-0.185,0.930,25.900,0.350,-32.760
0.394,-0.395,0.774,24.990,10.990,-35.210
0.407,-0.409,0.768,27.090,19.390,-33.880
0.425,-0.442,0.811,30.240,23.170,-34.790
0.424,-0.514,0.738,36.050,28.350,-40.390
0.415,-0.561,0.601,38.150,43.960,-50.190
0.390,-0.524,0.577,42.280,66.010,-60.480
0.379,-0.470,0.752,38.360,81.620,-68.320
0.360,-0.408,1.097,31.990,84.910,-75.250
0.355,-0.292,1.116,33.530,80.780,-75.670
0.317,-0.191,1.128,29.540,78.540,-71.540
0.313,-0.009,1.150,25.620,79.310,-61.880
0.341,-0.047,1.239,29.050,74.410,-48.930
0.385,-0.076,1.252,32.760,58.590,-37.240
0.371,-0.264,1.124,39.270,59.640,-42.980
0.343,-0.417,1.118,48.440,60.760,-52.430
0.369,-0.406,1.195,46.830,43.540,-61.740
0.384,-0.421,1.091,46.830,30.870,-71.540
0.386,-0.365,1.010,40.950,24.150,-79.310
0.360,-0.214,0.975,35.910,21.420,-80.150
0.322,-0.117,0.989,38.150,21.420,-75.250
0.287,-0.078,1.148,37.450,12.390,-71.890
0.299,-0.031,1.232,45.290,-1.190,-69.090
0.242,0.031,1.117,33.040,-4.830,-55.160
0.267,0.138,1.164,31.990,-11.760,-41.020
0.293,0.075,1.116,33.670,-20.230,-32.340
0.303,-0.058,0.937,30.520,-17.150,-33.110
0.303,-0.088,0.874,25.270,-12.180,-33.390
0.305,-0.061,0.841,17.570,-5.950,-30.730
0.295,-0.034,0.848,12.250,5.880,-26.950
0.267,-0.050,1.000,8.680,9.170,-24.150
0.274,-0.051,1.111,9.240,3.780,-1.400
0.290,-0.131,1.083,7.630,0.910,-18.130
0.293,-0.185,1.005,7.140,6.930,-19.810
0.278,-0.185,1.073,9.520,10.080,-19.390
0.315,-0.199,1.130,3.500,7.350,-18.550
0.319,-0.195,1.137,4.830,1.330,-15.120
0.303,-0.213,1.071,8.610,0.350,-12.320
0.284,-0.249,1.071,12.670,-3.990,-12.110
0.264,-0.321,0.986,11.200,-9.100,-16.800
0.255,-0.298,0.874,10.150,-5.740,-17.710
0.255,-0.223,0.843,16.800,-2.030,-11.200
0.257,-0.249,0.846,22.540,1.260,-8.680
0.258,-0.316,0.902,23.730,4.130,-10.710
0.264,-0.351,0.972,24.360,3.500,-14.770
0.276,-0.346,1.022,22.820,-0.910,-19.460
0.284,-0.297,0.998,22.260,-2.800,-21.350
0.277,-0.244,0.977,20.300,-3.010,-21.770
0.267,-0.193,0.951,20.160,-2.240,-20.160
0.263,-0.138,0.929,20.860,-0.140,-16.660
0.270,-0.087,0.920,23.380,0.910,-11.270
0.264,-0.094,0.871,21.280,7.280,-8.960
0.256,-0.055,0.916,17.360,13.580,-3.220
0.249,-0.020,1.058,17.430,9.660,4.550
0.253,-0.092,1.095,15.330,3.850,8.470
0.284,-0.108,1.045,18.480,1.680,14.070
0.334,-0.227,0.942,19.600,5.670,12.740
0.379,-0.379,0.996,12.600,14.490,2.100
0.409,-0.370,1.192,6.580,7.560,-5.740
0.445,-0.278,1.199,9.240,0.840,-6.790
0.474,-0.245,1.170,11.340,-0.630,-7.140
0.494,-0.228,1.169,13.790,-4.830,-8.610
0.509,-0.174,1.130,17.290,-3.920,-7.560
0.521,-0.053,1.154,25.060,-2.870,0.140
0.533,-0.026,1.193,38.430,-6.370,7.140
0.568,-0.039,1.109,54.460,-3.220,13.160
0.575,-0.082,1.092,71.330,5.530,16.310
0.536,-0.142,1.231,94.780,11.550,13.930

0.568,-0.463,1.490,63.980,-44.800,-53.760
0.604,-0.153,1.290,24.080,-54.390,-65.310
0.625,0.379,1.207,1.190,-50.680,-52.150
0.689,0.610,1.244,-3.290,-57.400,-30.100
0.779,0.643,0.874,7.560,-60.760,-9.520
0.839,0.543,0.443,11.690,-35.910,2.240
0.862,0.604,0.220,1.400,1.960,20.860
0.849,0.817,0.188,-4.480,37.240,53.410
0.783,0.890,0.268,-13.510,73.150,89.950
0.675,0.718,0.737,3.220,108.430,118.020
0.584,0.409,1.144,5.670,108.220,130.760
0.419,0.091,1.612,-2.170,102.550,122.290
0.265,-0.070,2.139,-2.940,81.480,107.520
0.281,-0.038,2.629,15.400,-13.580,106.260
0.416,-0.079,2.472,9.520,-80.430,100.030
0.460,-0.169,1.673,-19.250,-109.690,86.520
0.505,-0.087,1.017,-55.090,-105.140,70.420
0.590,0.069,0.604,-76.020,-80.430,71.050
0.734,0.184,0.450,-83.020,-48.370,80.500
0.787,0.131,0.386,-87.850,-27.790,81.620
0.799,0.107,0.397,-92.260,-9.380,82.250
0.820,0.219,0.360,-95.830,6.160,95.340
0.795,0.246,0.286,-87.150,31.360,112.910
0.754,0.116,0.281,-79.660,52.780,122.710
0.687,-0.027,0.319,-78.750,76.650,126.630
0.585,-0.224,0.491,-76.370,105.560,124.880
0.516,-0.452,1.035,-71.960,126.980,119.420
0.551,-0.755,1.690,-63.350,101.500,108.220
0.612,-1.152,1.944,-49.840,50.750,62.440
0.591,-1.668,1.728,-54.530,5.600,-2.520
0.536,-1.665,1.257,-76.020,-17.430,-60.760
0.481,-1.302,0.612,-103.530,-8.260,-91.140
0.379,-0.946,0.396,-117.250,11.690,-109.060
0.251,-0.530,0.384,-116.900,24.920,-110.530
0.108,-0.264,0.295,-103.460,40.740,-102.410
-0.036,-0.058,0.047,-84.910,60.690,-84.140
-0.152,0.010,-0.117,-63.420,96.600,-55.720
-0.328,-0.123,0.012,-43.120,133.070,-40.740
-0.589,-0.408,0.633,-29.190,149.940,-41.860
-0.732,-0.653,1.136,-24.780,129.570,-53.130
-0.836,-0.894,1.296,-12.530,88.550,-63.210
-1.311,-1.206,0.455,151.200,13.860,-97.650
-0.671,-1.482,0.007,-3.990,148.820,-208.670
-0.736,0.193,1.182,-188.370,98.630,-74.410
-1.802,0.024,1.344,42.420,-14.910,-44.310
-1.320,-1.403,0.308,-120.120,20.020,-148.400
-1.600,0.149,0.282,-123.620,58.450,-51.520
-1.651,0.570,1.135,-123.340,-0.420,-8.750
-1.657,0.427,0.289,-172.480,-2.590,35.980
-1.629,0.122,-0.065,-150.360,21.980,81.970
-1.535,-1.264,-0.318,-164.850,59.990,67.550
-1.544,-2.306,-0.554,-155.610,184.100,-21.980
-1.600,-2.834,0.420,-154.840,240.310,-153.650
-1.543,-1.707,1.525,-136.430,191.870,-225.960
-1.342,-0.580,1.584,-86.660,127.820,-201.390
-1.179,0.055,0.956,-45.290,100.940,-153.650
-1.112,0.200,0.657,-10.150,109.340,-115.500
-1.000,0.015,0.683,20.090,116.900,-97.090
-0.899,0.062,0.855,46.830,109.970,-84.910
-0.764,0.204,0.938,71.190,86.520,-61.320
-0.655,0.259,0.789,73.220,83.790,-33.670
-0.640,0.183,0.769,62.790,91.280,-7.910
-0.642,-0.182,0.925,29.680,97.090,1.190
-0.611,-0.343,1.215,-5.390,75.530,0.140
-0.574,-0.332,1.586,-23.450,68.180,4.480
-0.557,-0.331,1.781,-29.960,39.690,10.360
-0.526,-0.357,1.853,-20.300,-0.840,15.680
-0.376,-0.403,1.468,-9.590,-46.340,19.810
-0.465,-0.423,1.014,-8.260,-50.260,30.170
-0.446,-0.539,0.870,-8.750,-52.150,34.090
-0.413,-0.685,0.668,-19.180,-63.700,32.690
-0.347,-0.825,0.495,-27.510,-60.130,28.560
-0.318,-1.102,0.374,-37.450,-50.890,12.390
-0.312,-1.132,0.343,-42.420,-38.430,-9.310
-0.305,-0.980,0.506,-46.200,-38.220,-21.350
-0.272,-0.682,0.415,-27.930,-41.720,-13.370
-0.264,-0.612,0.290,-7.840,-32.200,-11.760
-0.237,-0.564,0.297,7.140,-18.340,-7.490
-0.208,-0.519,0.349,25.900,-11.620,-0.420
-0.192,-0.462,0.372,37.380,-1.750,7.490
-0.208,-0.418,0.431,44.100,9.100,19.250
-0.212,-0.419,0.566,44.660,14.350,35.770
-0.218,-0.669,0.623,45.710,18.620,41.160
-0.222,-0.872,0.736,41.020,23.590,32.970
-0.236,-0.971,0.953,47.110,22.400,23.030
-0.248,-1.040,1.086,49.070,13.790,9.940
-0.285,-1.068,1.118,51.310,7.070,-6.510
-0.320,-0.919,1.106,48.230,3.430,-22.260
-0.315,-0.695,1.120,47.320,-1.540,-22.260
-0.314,-0.552,1.110,42.840,-9.590,-20.300
-0.283,-0.442,1.092,38.010,-14.000,-13.160
-0.272,-0.279,1.122,32.690,-24.500,-2.590
-0.298,-0.183,1.011,27.300,-34.930,12.670
-0.306,-0.167,0.875,25.270,-33.880,28.630
-0.309,-0.291,0.788,23.310,-29.400,37.590
-0.319,-0.543,0.745,17.150,-21.280,34.790
-0.328,-0.630,0.789,22.050,-12.740,30.800
-0.352,-0.676,1.030,24.360,-15.400,23.940
-0.375,-0.585,1.153,27.160,-22.190,23.450
-0.400,-0.547,1.213,34.790,-31.990,25.130
-0.420,-0.608,1.153,41.090,-40.600,18.900
-0.420,-0.569,1.080,37.730,-42.700,15.120
-0.383,-0.426,1.008,34.860,-44.660,22.610
-0.366,-0.508,0.892,32.270,-42.840,19.880
-0.395,-0.579,0.834,19.810,-35.700,12.460
-0.442,-0.492,0.875,10.850,-32.970,9.590
-0.439,-0.395,0.925,0.280,-35.910,16.030
-0.469,-0.490,0.855,-1.330,-40.320,16.380
-0.562,-0.671,0.675,-10.640,-23.940,3.150
-0.616,-0.697,0.748,-19.460,-17.150,-11.130
-0.610,-0.538,0.784,-16.310,-18.410,-12.950
-0.581,-0.636,0.661,-13.300,-5.110,-26.600
-0.550,-0.706,0.757,-30.380,4.970,-59.640
-0.510,-0.291,1.001,-44.030,0.980,-63.840
-0.499,0.132,1.202,-43.610,-38.150,-35.210
-0.487,0.273,1.039,-42.280,-63.000,6.230
-0.505,-0.159,0.735,-48.650,-67.270,37.030
-0.562,-0.685,0.550,-51.450,-39.200,29.120
-0.650,-1.059,0.625,-62.300,-38.710,3.150

-0.688,-0.960,0.871,-57.470,-45.500,-18.830
-0.752,-0.852,0.728,-31.850,-46.550,-22.050
-0.750,-0.823,0.501,-5.180,-23.170,-29.890
-0.645,-0.710,0.593,27.230,-4.900,-40.670
-0.546,-0.348,0.829,56.070,-2.450,-47.460
-0.545,0.167,1.043,62.720,-27.020,-21.910
-0.568,0.569,0.840,51.590,-63.350,31.150
-0.591,0.474,0.392,19.670,-59.850,102.410
-0.705,-0.109,0.144,8.890,-33.670,111.090
-0.696,-0.446,0.504,-31.850,-22.890,114.100
-0.768,-0.729,0.664,-57.190,-26.460,101.640
-0.831,-0.924,0.863,-74.620,-23.660,92.960
-0.818,-1.069,1.316,-63.350,-48.300,76.160
-0.813,-1.181,1.517,-50.260,-81.970,48.930
-0.781,-0.943,1.462,-29.820,-125.440,28.770
-0.733,-0.632,0.680,-12.460,-144.410,32.130
-0.679,-0.444,0.294,-1.050,-128.590,41.090
-0.628,-0.298,0.182,11.200,-110.320,51.380
-0.577,-0.174,0.283,-2.450,-102.130,62.300
-0.536,-0.114,0.214,-0.560,-97.720,73.780
-0.507,-0.171,0.081,0.350,-78.260,86.030
-0.444,-0.224,0.165,9.240,-67.970,98.070
-0.437,-0.481,0.213,10.640,-43.400,90.720
-0.457,-0.601,0.558,4.410,-34.930,81.480
-0.389,-0.580,0.882,8.960,-50.540,79.100
-0.355,-0.750,0.854,9.450,-60.410,69.090
-0.282,-0.828,0.721,20.510,-62.160,59.920
-0.204,-0.863,0.667,38.780,-61.460,48.930
-0.120,-0.778,0.653,63.910,-60.690,39.200
-0.044,-0.667,0.588,72.940,-59.010,33.740
0.054,-0.554,0.404,78.400,-39.830,30.800
0.161,-0.362,0.504,80.010,-28.630,35.000
0.215,-0.142,0.658,71.190,-26.180,54.740
0.227,-0.061,0.790,59.430,-30.520,69.020
0.224,-0.077,0.816,49.000,-31.780,82.460
0.200,-0.176,0.935,49.280,-31.080,91.280
0.205,-0.315,1.015,47.320,-38.640,94.780
0.190,-0.583,0.875,57.540,-26.810,88.970
0.219,-0.605,1.116,71.890,-19.670,85.750
0.257,-0.623,1.495,81.410,-42.000,83.370
0.302,-0.651,1.424,85.470,-63.070,79.800
0.306,-0.711,1.099,92.330,-65.800,71.400
0.321,-0.737,0.837,98.140,-55.300,61.600
0.344,-0.743,0.665,102.830,-34.930,53.830
0.435,-0.687,0.627,110.810,-13.650,46.900
0.399,-0.731,0.933,129.850,0.000,26.390
0.394,-0.752,1.269,119.280,-6.650,13.230
0.394,-0.764,1.275,117.390,-26.460,0.210
0.353,-0.755,1.126,111.580,-8.400,-12.810
0.361,-0.784,1.341,96.320,-5.880,-27.510
0.380,-0.832,1.403,70.700,-10.920,-55.440
0.351,-0.677,1.305,57.400,-9.240,-69.230
0.350,-0.530,1.244,53.480,2.240,-79.800
0.371,-0.449,1.343,67.200,4.830,-90.370
0.399,-0.288,1.374,76.930,-3.640,-95.900
0.429,-0.263,1.256,71.540,-5.810,-96.530
0.484,-0.134,1.076,107.310,0.770,-90.720
0.443,-0.362,1.193,88.900,-5.880,-90.370
0.550,-0.126,1.052,70.560,-0.840,-79.240
0.493,-0.385,1.094,51.730,5.880,-87.290
0.435,-0.384,1.182,41.510,7.140,-94.570
0.422,-0.168,1.342,33.460,2.030,-92.330
0.420,-0.124,1.459,23.030,-14.770,-90.930
0.401,-0.093,1.266,19.740,-25.970,-91.490
0.362,-0.051,1.125,36.540,-22.190,-94.570
0.393,0.195,1.141,31.780,-22.750,-77.280
0.401,-0.045,1.116,23.940,-27.370,-81.340
0.407,-0.162,0.962,26.180,-23.800,-86.030
0.456,-0.027,1.015,38.010,-22.260,-75.950
0.456,-0.146,1.130,33.880,-35.420,-76.720
0.456,-0.252,1.104,21.840,-53.340,-85.330
0.449,-0.196,0.890,13.370,-60.480,-86.800
0.430,-0.402,0.534,-14.140,-41.720,-105.420
0.359,-0.077,0.441,-15.540,-17.920,-98.980
0.385,0.278,0.546,-2.940,3.570,-77.560
0.389,0.248,0.837,-8.750,6.300,-61.810
0.349,0.148,0.951,-16.730,-0.280,-52.640
0.291,0.111,0.956,-7.420,-5.390,-38.920
0.319,0.204,1.063,-1.540,-11.410,-24.710
0.242,-0.192,0.959,24.920,-13.790,-26.810
0.323,-0.251,0.845,-6.090,2.380,-42.560
0.290,-0.099,0.906,-21.840,11.550,-46.200
0.307,0.091,0.975,-12.180,14.000,-31.150
0.329,-0.058,1.044,-0.420,6.230,-29.470
0.363,-0.199,1.095,0.630,-3.850,-34.930
0.390,-0.230,0.954,-7.560,-15.610,-39.130
0.394,-0.203,0.767,-3.430,-5.040,-39.270
0.377,-0.145,0.727,6.300,11.620,-36.050
0.398,-0.198,0.966,4.340,13.370,-36.470
0.421,-0.114,1.037,3.220,9.100,-30.170
0.470,-0.121,1.011,1.190,7.770,-23.870
0.481,-0.188,1.019,1.400,7.630,-24.080
0.495,-0.185,0.996,3.780,10.500,-22.960
0.514,-0.163,1.038,5.530,13.580,-20.370
0.481,-0.229,1.084,11.340,12.810,-21.210
0.451,-0.242,1.170,13.160,7.910,-23.310
0.459,-0.127,1.203,15.050,-2.100,-17.710
0.471,-0.124,1.146,17.080,-10.850,-13.510
0.462,-0.202,1.027,16.030,-12.600,-15.820
0.470,-0.206,1.001,14.770,-10.220,-16.100
0.456,-0.173,1.034,9.870,-11.620,-14.630
0.452,-0.115,1.007,7.420,-10.640,-8.750
0.457,-0.080,1.016,8.820,-9.310,-0.630
0.469,-0.107,1.031,9.240,-9.800,6.930
0.461,-0.207,1.035,7.420,-9.450,6.230
0.441,-0.290,1.039,1.890,-5.530,0.910
0.441,-0.302,1.130,-1.120,-4.480,-4.060
0.439,-0.299,1.164,-4.970,-7.700,-9.800
0.459,-0.246,1.130,-1.890,-8.190,-14.350
0.473,-0.183,1.130,3.080,-5.250,-11.130
0.479,-0.210,1.222,9.450,-10.640,-9.520
0.490,-0.233,1.215,12.600,-15.820,-9.940
0.500,-0.155,1.162,23.520,-16.100,-7.000
0.501,-0.045,1.182,32.760,-20.230,0.560
0.529,0.037,1.177,41.650,-28.840,11.200
0.577,0.057,1.049,49.840,-31.500,20.930
0.624,-0.033,0.995,58.730,-30.310,23.240
0.646,-0.051,0.951,47.810,-31.290,23.800
0.695,-0.003,0.808,41.230,-20.160,28.910

0.194,-0.620,1.658,29.820,74.200,-18.480
0.244,-0.536,1.020,20.650,58.800,-32.480
0.229,-0.265,0.739,0.840,51.240,-32.900
0.144,-0.203,0.549,-36.540,55.440,-32.340
0.019,-0.097,0.577,-69.230,58.030,-27.720
-0.148,0.065,0.643,-109.830,69.860,-22.610
-0.444,0.074,0.769,-112.070,97.300,-12.950
-0.635,0.282,1.471,-58.520,94.500,15.890
-0.739,0.318,1.969,-9.240,45.290,35.630
-0.781,0.200,2.045,8.540,-30.310,57.330
-1.780,-3.863,0.208,123.480,-42.070,-193.550
0.223,1.521,0.759,18.060,-54.880,51.100
0.157,2.200,-0.671,33.180,42.910,285.530
-1.549,-3.311,0.463,101.080,84.280,-56.840
-1.376,-2.408,1.697,-88.200,-5.880,-141.330
-1.176,-1.323,0.308,-166.880,36.820,-181.090
-1.239,-0.666,0.887,-173.810,51.870,-177.310
-1.255,0.223,1.281,-228.340,16.310,-147.280
-1.337,0.287,0.709,-215.600,10.920,-123.200
-1.420,0.411,0.168,-189.560,43.050,-95.340
-1.330,0.608,0.001,-150.850,90.720,-35.560
-1.196,0.644,0.295,-73.360,129.290,11.130
-1.137,-0.150,0.832,-36.330,134.610,24.010
-1.107,-1.215,1.145,-23.380,130.970,-17.290
-1.034,-1.561,1.321,-9.380,142.590,-59.220
-0.934,-0.968,1.930,1.540,126.910,-78.680
-0.898,-0.658,2.386,-32.130,64.260,-80.570
-0.911,-0.532,2.466,-12.250,-5.250,-81.760
-0.956,-0.554,1.929,-31.710,-43.960,-98.280
-0.916,-0.423,1.326,-23.590,-41.860,-104.230
-0.751,-0.035,1.118,-28.070,-33.040,-93.730
-0.625,0.153,1.062,-9.520,-33.810,-71.260
-0.546,0.334,1.010,12.740,-40.950,-48.090
-0.517,0.375,0.894,21.980,-47.180,-24.010
-0.434,0.289,0.625,19.950,-37.240,-2.450
-0.395,0.020,0.550,5.880,-21.630,12.600
-0.380,-0.240,0.638,-2.940,-10.570,15.890
-0.402,-0.417,0.811,-15.820,-3.290,11.270
-0.396,-0.535,0.893,-22.400,-1.890,3.710
-0.372,-0.591,0.909,-30.100,-0.420,-8.120
-0.347,-0.501,0.885,-30.030,6.860,-11.760
-0.345,-0.439,0.951,-30.800,8.680,-14.700
-0.334,-0.335,0.986,-30.450,4.340,-11.830
-0.297,-0.216,0.764,-30.940,4.480,-3.220
-0.317,-0.312,0.774,-33.460,10.080,-2.520
-0.308,-0.351,0.779,-36.260,14.210,-1.470
-0.279,-0.305,0.789,-37.380,20.020,3.850
-0.229,-0.189,0.979,-21.560,17.150,20.790
-0.229,-0.390,1.133,-13.300,3.780,20.580
-0.258,-0.479,1.023,-9.590,0.280,16.380
-0.232,-0.446,1.052,-6.440,0.700,16.660
-0.223,-0.421,1.075,-2.240,-5.040,14.630
-0.200,-0.420,1.028,6.720,-9.100,14.140
-0.191,-0.435,0.966,1.470,-11.200,13.370
-0.201,-0.421,0.864,1.610,-5.040,13.650
-0.202,-0.370,0.897,-1.960,-0.630,15.680
-0.215,-0.389,0.933,-11.830,1.400,15.750
-0.220,-0.395,0.964,-18.200,0.840,14.980
-0.219,-0.412,0.923,-18.480,0.980,14.840
-0.229,-0.524,0.896,-7.840,3.150,6.580
-0.227,-0.497,0.900,-0.280,2.520,-1.260
-0.226,-0.388,0.840,8.750,5.250,-1.890
-0.233,-0.313,0.877,14.280,6.300,1.470
-0.224,-0.203,0.937,12.250,4.270,9.730
-0.221,-0.212,0.983,10.500,-0.490,15.680
-0.254,-0.294,0.971,5.810,-5.600,18.060
-0.261,-0.314,0.938,-0.840,-5.040,23.940
-0.264,-0.306,0.960,-1.050,-3.430,27.720
-0.298,-0.367,1.072,-4.760,-5.040,28.700
-0.317,-0.407,1.116,-4.200,-7.210,28.000
-0.337,-0.453,1.160,7.700,-10.150,22.890
-0.377,-0.399,1.226,12.460,-17.360,21.490
-0.415,-0.315,1.232,21.140,-21.140,21.910
-0.425,-0.382,1.241,38.500,-24.920,12.110
-0.421,-0.372,1.264,48.090,-31.710,9.170
-0.429,-0.280,1.199,50.960,-35.980,10.850
-0.440,-0.249,1.105,58.380,-39.200,13.440
-0.480,-0.210,1.041,36.960,-40.110,17.920
-0.517,-0.132,0.957,52.150,-35.560,27.510
-0.525,-0.154,1.026,43.680,-35.420,35.910
-0.585,-0.285,1.043,33.110,-39.410,39.410
-0.626,-0.333,0.977,22.750,-39.480,42.980
-0.657,-0.543,0.960,16.450,-36.680,35.560
-0.610,-0.594,1.079,21.770,-37.800,31.920
-0.592,-0.537,1.203,26.670,-49.140,31.920
-0.610,-0.494,1.122,31.710,-53.550,29.680
-0.581,-0.570,1.016,57.680,-49.210,21.280
-0.509,-0.578,1.073,65.870,-60.480,15.400
-0.526,-0.346,0.936,55.230,-68.530,24.360
-0.577,-0.077,0.656,52.850,-62.090,41.160
-0.637,-0.028,0.629,49.560,-43.890,57.400
-0.699,-0.090,0.809,37.450,-34.720,68.040
-0.749,-0.236,1.152,28.490,-40.740,72.380
-0.791,-0.391,1.417,20.020,-57.820,68.950
-0.802,-0.591,1.383,36.680,-80.010,62.580
-0.731,-0.893,1.332,69.720,-98.770,42.700
-0.708,-1.089,1.065,105.700,-108.780,4.550
-0.666,-0.800,0.803,121.520,-103.530,-15.400
-0.580,-0.279,0.634,123.130,-91.980,-13.790
-0.524,0.229,0.573,110.180,-90.160,8.470
-0.475,0.539,0.363,81.480,-83.160,49.140
-0.497,0.407,0.136,52.920,-65.450,67.900
-0.492,0.281,0.055,32.270,-22.120,80.990
-0.463,0.263,0.427,12.740,-6.790,96.110
-0.461,0.111,0.752,-7.350,-6.510,103.530
-0.454,-0.192,0.946,-19.810,-10.990,98.560
-0.390,-0.386,1.047,-19.530,-17.010,89.670
-0.318,-0.509,1.242,-17.710,-26.250,75.110
-0.307,-0.491,1.333,-18.270,-41.370,55.090
-0.259,-0.331,1.279,-10.990,-56.770,48.300
-0.147,-0.209,1.002,0.070,-70.980,45.710
-0.087,-0.124,0.727,4.480,-68.880,45.990
-0.066,0.078,0.481,-8.680,-53.410,53.970
-0.058,0.150,0.466,-5.460,-34.580,62.650
-0.054,0.193,0.741,-16.100,-32.830,72.310
-0.013,0.242,0.715,-24.360,-27.790,106.120
0.000,0.020,0.790,-23.100,-18.270,102.200
-0.001,-0.321,1.032,-29.960,-19.250,95.550
0.016,-0.657,1.245,-42.070,-27.090,79.380

0.164,-1.198,1.353,-44.100,-44.380,27.160
0.277,-1.178,1.350,-54.250,-60.900,-16.660
0.307,-0.882,1.144,-53.900,-66.780,-35.000
0.357,-0.572,0.945,-46.340,-64.050,-40.810
0.416,-0.360,0.860,-41.370,-65.240,-39.410
0.425,-0.246,0.652,-34.580,-57.330,-36.960
0.419,-0.142,0.614,-15.470,-30.590,-29.960
0.418,-0.092,0.647,3.010,-20.090,-23.310
0.407,0.008,0.736,33.250,-13.720,-7.630
0.393,0.072,0.813,57.890,-9.590,4.270
0.366,-0.038,0.882,75.670,-6.160,10.290
0.420,-0.099,0.982,88.480,-13.230,15.190
0.485,-0.121,0.887,92.820,-17.990,21.350
0.510,-0.183,0.772,88.550,-12.600,22.190
0.500,-0.332,0.802,72.380,-7.000,14.140
0.495,-0.396,0.909,48.580,-3.150,2.940
0.473,-0.381,1.034,23.100,-3.990,-8.050
0.401,-0.383,1.107,-5.460,-4.410,-20.230
0.382,-0.262,1.206,-14.700,-5.250,-22.960
0.414,-0.160,1.431,-17.290,-19.110,-22.680
0.398,-0.179,1.509,-29.610,-44.380,-26.600
0.422,-0.230,1.155,1.750,-45.150,-29.820
0.455,-0.313,0.912,15.960,-37.310,-40.180
0.533,-0.335,0.782,16.520,-26.250,-54.670
0.595,-0.403,0.594,18.270,-2.310,-68.740
0.651,-0.372,0.630,17.360,18.270,-80.780
0.593,-0.331,0.860,24.500,34.090,-89.390
0.529,-0.234,1.056,33.600,37.100,-95.410
0.517,-0.198,1.297,39.480,24.920,-104.300
0.495,-0.085,1.346,34.020,9.660,-106.050
0.487,-0.001,1.212,35.630,-1.960,-104.650
0.513,0.007,1.062,31.710,-2.170,-104.930
0.546,-0.050,0.935,26.950,2.030,-109.340
0.546,0.029,0.772,11.270,14.280,-108.710
0.570,0.190,0.639,19.950,36.750,-101.010
0.608,0.195,0.849,28.700,50.050,-96.390
0.623,0.030,0.950,27.720,48.440,-100.660
0.642,0.034,0.983,33.600,49.280,-103.320
0.651,-0.023,1.118,26.530,44.660,-112.560
0.641,0.040,1.176,26.040,32.760,-113.610
0.639,0.120,1.183,27.580,17.360,-111.160
0.634,0.144,1.186,32.550,2.800,-107.800
0.643,0.154,1.083,35.140,-7.140,-104.510
0.648,0.146,0.938,31.640,-10.500,-100.240
0.652,0.165,0.805,20.580,-7.420,-96.740
0.651,0.180,0.675,13.020,0.490,-93.030
0.654,0.169,0.621,24.640,18.690,-90.720
0.658,0.193,0.813,42.000,22.330,-85.330
0.634,0.278,1.044,45.010,12.180,-73.570
0.631,0.414,1.335,13.790,-7.140,-45.220
0.603,0.274,1.225,17.010,-13.790,-41.020
0.591,0.133,1.158,23.660,-19.740,-43.260
0.594,0.098,1.215,20.370,-34.230,-45.570
0.568,0.203,1.086,7.280,-39.270,-39.200
0.535,0.486,1.012,30.450,-40.950,-6.860
0.544,0.590,0.959,89.600,-46.830,41.440
0.605,0.072,1.133,16.800,-53.970,22.260
0.471,-0.146,0.863,20.370,-41.790,10.430
0.563,0.091,0.920,29.890,-40.740,19.390
0.576,-0.061,0.978,40.250,-44.940,9.870
0.590,-0.245,0.985,3.920,-55.230,-7.210
0.532,-0.092,0.773,-1.750,-45.990,-11.620
0.497,-0.015,0.736,-2.590,-27.160,-14.560
0.484,0.094,0.870,0.980,-25.970,-6.580
0.484,0.042,0.899,6.930,-29.820,-6.160
0.480,-0.049,0.833,15.540,-25.410,-10.080
0.495,0.001,0.778,6.510,-15.680,-11.200
0.489,-0.017,0.859,8.050,-8.190,-15.120
0.476,0.046,0.976,9.590,-8.540,-14.210
0.490,0.128,0.998,17.780,-9.240,-8.680
0.482,0.144,1.005,26.810,-9.940,-4.690
0.471,0.122,0.985,32.480,-9.590,-2.800
0.464,0.111,0.944,34.370,-6.510,-3.010
0.458,0.123,0.966,34.510,-2.590,-3.080
0.441,0.172,1.026,31.920,-3.990,0.070
0.441,0.186,1.047,28.700,-8.470,4.760
0.444,0.162,0.987,21.700,-10.920,6.510
0.463,0.118,0.901,20.440,-6.790,5.880
0.488,0.127,0.931,14.980,-1.470,7.140
0.518,0.106,0.960,1.890,0.770,5.600
0.534,0.115,0.961,-2.170,4.970,7.070
0.540,0.165,1.007,-3.360,7.560,13.720
0.532,0.162,1.070,-1.260,7.210,18.900
0.542,0.180,1.105,0.350,4.480,25.270
0.554,0.176,1.092,1.890,1.260,31.010
0.563,0.166,1.044,3.780,1.820,36.890
0.580,0.152,1.034,7.490,3.220,43.470
0.587,0.132,1.049,12.320,2.380,47.180
0.601,0.125,1.042,13.930,2.100,50.260
0.622,0.088,1.031,20.930,2.100,51.660
0.658,0.062,1.076,29.470,-2.240,53.130
0.680,0.044,1.051,30.870,-6.090,54.600
0.692,-0.020,1.010,34.720,-7.000,55.090
0.714,-0.064,1.020,33.530,-8.960,51.170
0.715,-0.108,0.894,22.680,-11.060,43.120
0.736,-0.080,1.027,27.510,-8.050,36.820
0.755,-0.093,1.148,23.030,-12.880,29.610
0.789,-0.051,1.179,31.360,-18.130,22.610
0.803,-0.001,1.251,32.900,-26.810,17.990
0.815,0.085,1.212,39.690,-35.910,16.660
0.827,0.217,1.200,48.440,-41.440,21.980
0.852,0.310,1.146,51.590,-47.740,33.320
0.870,0.298,1.021,52.150,-49.280,38.150
0.891,0.243,0.882,55.090,-44.380,38.500
0.915,0.248,0.775,54.950,-34.020,36.960
0.920,0.274,0.719,45.850,-22.750,35.770
0.925,0.292,0.774,41.370,-15.680,36.330
0.942,0.277,0.863,27.860,-14.910,35.910
0.957,0.267,0.888,29.890,-14.210,31.780
0.918,0.352,1.032,33.740,-23.800,29.890
0.912,0.394,1.114,23.660,-36.750,29.120
0.902,0.425,0.999,25.900,-39.130,29.960
0.900,0.480,0.950,25.690,-36.820,37.800
0.913,0.444,0.931,30.240,-37.030,41.580
0.949,0.346,0.874,31.080,-43.330,41.370
0.986,0.268,0.592,30.800,-40.460,39.130
0.981,0.165,0.374,26.250,-32.620,34.090
1.004,0.136,0.128,19.530,-18.130,31.360
1.016,0.181,-0.104,-2.450,20.090,23.520

-2.298,-4.701,1.939,-25.200,-138.530,-372.890
0.702,2.647,-1.611,-171.290,62.650,-82.110
0.536,2.615,-1.532,16.800,240.940,114.940
-1.442,-1.054,2.036,72.730,105.280,8.890
-1.501,-1.073,1.507,41.020,51.170,-43.330
-1.431,0.108,0.791,123.270,104.440,-23.310
-1.526,0.444,1.724,52.290,90.930,-3.010
-1.622,0.846,1.801,85.190,25.830,55.440
-1.684,0.503,1.241,44.520,2.240,95.200
-1.629,0.206,0.590,60.690,9.590,119.280
-1.650,-0.507,0.374,55.510,23.730,95.900
-1.559,-1.024,0.305,68.600,50.330,45.430
-1.432,-1.609,0.465,72.940,64.960,-39.760
-1.278,-1.706,0.604,74.200,82.810,-144.200
-1.229,-0.727,1.024,31.990,88.200,-185.850
-1.247,0.099,1.367,-28.000,74.900,-185.150
-1.150,0.893,1.617,-16.100,47.320,-142.660
-1.072,1.071,1.643,-51.730,17.080,-81.480
-1.017,0.737,1.477,-72.520,7.980,-55.020
-0.785,0.410,1.512,-84.140,1.750,-40.110
-0.829,-0.061,1.566,-80.710,-11.760,-54.180
-0.775,-0.300,1.559,-83.020,-29.610,-76.160
-0.667,-0.007,1.261,-76.020,-35.280,-72.590
-0.614,0.171,1.132,-74.060,-33.740,-56.490
-0.602,0.208,1.040,-76.930,-31.150,-47.740
-0.560,0.193,0.760,-70.630,-20.510,-38.570
-0.454,0.333,0.795,-69.720,-5.740,-16.240
-0.470,0.081,0.902,-49.840,-1.400,-7.210
-0.489,-0.102,0.968,-46.550,-3.710,-5.740
-0.427,-0.076,0.800,-54.040,6.860,-1.960
-0.402,-0.058,0.786,-54.110,18.690,13.090
-0.383,-0.179,0.884,-48.580,23.520,17.570
-0.362,-0.405,0.995,-26.880,25.410,8.610
-0.373,-0.434,1.103,-28.560,19.110,-2.380
-0.397,-0.298,1.089,-51.870,20.440,-3.710
-0.402,-0.266,1.136,-52.010,21.700,-6.160
-0.335,-0.263,1.269,-51.940,10.500,-8.890
-0.346,-0.278,1.213,-51.310,-0.770,-12.950
-0.320,-0.141,1.078,-51.730,-1.960,-8.120
-0.320,-0.080,1.051,-55.720,-4.480,-2.310
-0.342,-0.097,1.033,-58.520,-7.700,2.450
-0.352,-0.110,0.952,-38.640,-9.730,4.060
-0.337,-0.156,0.893,-29.260,-7.070,3.990
-0.301,-0.125,0.902,-21.210,-4.060,6.370
-0.271,-0.149,0.964,-12.530,-7.070,7.350
-0.269,-0.164,0.915,-13.930,-9.870,8.050
-0.275,-0.099,0.816,-14.070,-5.600,14.560
-0.277,-0.110,0.799,-13.230,3.080,19.250
-0.293,-0.193,0.924,-9.170,7.280,18.340
-0.298,-0.152,1.098,-15.470,7.140,22.330
-0.275,-0.366,1.276,-1.680,1.260,21.980
-0.261,-0.347,1.472,-6.510,-16.520,21.350
-0.261,-0.491,1.332,-11.550,-32.830,13.440
-0.272,-0.562,1.174,-8.120,-31.290,1.190
-0.292,-0.470,1.171,-4.970,-30.240,-5.180
-0.306,-0.365,1.188,4.480,-31.290,-8.330
-0.293,-0.239,1.176,11.270,-35.770,-5.460
-0.300,-0.201,1.062,20.440,-33.740,-2.170
-0.304,-0.252,0.979,27.370,-29.120,-4.830
-0.304,-0.210,0.904,26.740,-20.860,-2.240
-0.302,-0.140,0.920,38.990,-13.090,4.270
-0.323,-0.180,1.040,44.660,-13.510,5.670
-0.378,-0.216,1.034,39.900,-14.000,5.180
-0.399,-0.244,0.997,37.940,-9.100,4.060
-0.426,-0.136,1.068,38.920,-9.870,1.680
-0.429,-0.149,1.092,31.570,-16.590,3.500
-0.424,-0.098,0.938,31.990,-15.470,7.140
-0.363,0.009,0.863,33.740,-9.380,16.450
-0.344,0.039,0.861,41.790,-7.210,25.620
-0.351,-0.044,0.873,42.770,-7.700,30.100
-0.333,-0.041,0.834,42.980,-3.990,36.400
-0.331,-0.051,0.908,37.030,-0.560,41.930
-0.351,-0.103,1.061,24.780,-4.620,46.620
-0.386,-0.157,1.177,8.540,-34.370,48.650
-0.405,-0.195,1.117,2.940,-25.130,51.450
-0.441,-0.300,1.139,-3.220,-29.540,49.910
-0.486,-0.414,1.179,-16.940,-35.700,44.380
-0.530,-0.475,1.166,-19.250,-37.100,36.890
-0.571,-0.610,1.275,3.010,-38.710,17.220
-0.549,-0.708,1.457,21.210,-71.540,-3.430
-0.486,-0.579,1.335,47.950,-73.220,-18.340
-0.427,-0.390,1.148,67.550,-79.870,-25.410
-0.396,-0.163,0.944,81.620,-78.820,-24.850
-0.367,-0.011,0.680,71.400,-72.870,-18.340
-0.402,0.136,0.547,64.260,-57.330,-4.200
-0.426,0.196,0.488,50.610,-36.820,16.800
-0.458,0.187,0.587,41.860,-19.180,31.010
-0.518,0.105,0.779,24.430,-8.610,40.460
-0.561,-0.038,0.976,23.240,-3.220,46.130
-0.580,-0.337,1.232,22.750,-9.380,35.070
-0.570,-0.778,1.367,21.910,-20.790,14.560
-0.589,-0.908,1.533,9.450,-43.260,-13.860
-0.537,-0.662,1.469,8.050,-65.240,-28.630
-0.463,-0.105,1.217,24.710,-80.640,-18.410
-0.428,0.076,0.922,26.880,-83.370,-4.970
-0.420,0.189,0.625,24.150,-72.590,11.970
-0.423,0.139,0.565,13.300,-61.670,24.710
-0.383,0.061,0.578,-2.030,-53.760,37.450
-0.356,-0.002,0.647,-14.980,-52.150,43.890
-0.329,-0.047,0.675,-28.910,-53.340,50.050
-0.324,-0.062,0.713,-56.560,-54.810,54.040
-0.308,0.010,0.748,-82.180,-55.090,61.180
-0.340,0.109,0.806,-95.130,-56.910,70.700
-0.370,0.225,0.802,-86.940,-55.370,87.850
-0.359,0.377,0.834,-67.620,-51.170,108.010
-0.320,0.307,0.916,-45.920,-56.140,122.570
-0.282,0.071,0.817,-29.820,-56.210,125.790
-0.189,-0.111,0.663,-10.150,-47.670,121.240
-0.075,-0.403,0.622,8.050,-39.830,106.890
0.030,-0.661,0.592,10.150,-17.990,83.930
0.109,-0.848,0.497,4.900,-19.320,49.070
0.114,-0.758,0.630,-4.060,-4.060,1.540
0.139,-0.168,0.997,-9.170,-4.690,14.770
0.166,0.146,1.322,-8.820,-23.800,27.650
0.118,0.225,1.430,-14.420,-56.350,38.990
0.069,0.231,1.242,-14.420,-65.100,47.600
0.069,0.264,1.119,-7.560,-66.710,62.160
0.105,0.258,1.022,-3.990,-66.150,72.520
0.149,0.147,0.883,3.990,-58.800,77.490

-2.736,-3.236,2.819,219.100,-45.150,-272.440
0.122,2.605,0.620,-128.660,2.590,-32.760
0.996,4.028,-0.363,230.440,197.260,270.550
-0.767,-1.110,4.049,229.670,-27.790,129.710
-1.307,-2.329,2.861,-35.560,-230.160,-12.670
-0.903,-0.943,-0.742,-31.990,-121.240,-13.580
-0.741,-1.139,-0.814,-65.380,44.520,-56.210
-0.919,-0.834,0.742,-136.080,55.090,-69.930
-0.975,-0.662,0.854,-201.460,55.230,-70.980
-1.028,-0.423,0.868,-182.140,62.160,-72.800
-0.969,-0.374,1.119,-156.870,76.650,-72.450
-0.988,-0.351,1.466,-103.460,63.490,-71.890
-0.958,-0.546,1.500,-38.360,38.430,-98.420
-0.972,-0.435,1.186,0.420,32.620,-115.430
-0.901,-0.086,1.014,24.500,42.350,-111.300
-0.854,0.336,1.047,61.880,43.820,-78.470
-0.911,0.249,1.175,69.510,26.040,-65.870
-0.899,0.082,1.015,53.410,19.530,-67.340
-0.921,0.014,0.910,35.420,20.790,-76.090
-0.900,0.092,0.903,16.380,16.170,-79.800
-0.761,0.250,0.776,-21.840,22.680,-73.430
-0.644,0.447,0.821,-49.560,30.800,-54.950
-0.578,0.501,1.036,-76.230,24.920,-34.650
-0.523,0.387,0.989,-95.060,23.030,-17.570
-0.497,0.124,0.959,-100.240,24.150,-6.650
-0.430,0.092,0.888,-95.970,33.040,4.830
-0.391,0.041,1.063,-85.330,34.580,16.240
-0.422,-0.155,1.138,-87.850,26.250,18.340
-0.415,-0.434,1.051,-98.000,25.340,9.730
-0.408,-0.529,0.974,-92.260,30.100,-0.980
-0.385,-0.530,1.024,-85.960,33.600,-9.730
-0.370,-0.456,1.107,-63.490,23.800,-18.970
-0.393,-0.575,1.052,-11.620,12.040,-37.030
-0.321,-0.221,0.949,9.310,7.140,-34.090
-0.292,0.052,0.894,5.530,7.070,-15.470
-0.246,0.013,0.815,16.450,15.120,6.790
-0.288,-0.073,0.897,12.600,20.300,14.630
-0.292,-0.143,1.007,7.280,20.020,14.910
-0.284,-0.090,0.976,4.830,23.100,23.660
-0.268,-0.141,1.050,2.590,25.340,32.480
-0.277,-0.416,1.151,-3.010,23.520,24.920
-0.266,-0.521,1.195,-13.440,18.550,13.790
-0.247,-0.496,1.160,-23.380,14.420,6.230
-0.223,-0.381,1.143,-29.540,12.390,5.810
-0.222,-0.374,1.160,-34.510,8.120,3.290
-0.234,-0.377,1.120,-37.170,4.060,0.070
-0.202,-0.329,1.029,-27.090,4.620,-0.980
-0.204,-0.254,1.068,-24.640,2.170,1.050
-0.237,-0.219,1.078,-29.400,-0.350,2.450
-0.233,-0.132,1.013,-8.050,0.910,7.490
-0.232,-0.079,1.024,-5.950,-0.350,14.280
-0.233,-0.037,0.988,-1.960,2.100,22.610
-0.259,-0.089,1.025,3.640,1.960,28.070
-0.276,-0.248,1.024,5.320,2.940,26.250
-0.270,-0.280,1.057,0.840,3.290,23.940
-0.276,-0.293,1.111,-5.600,0.840,20.020
-0.264,-0.267,1.155,-11.970,-3.780,17.570
-0.242,-0.177,1.187,-14.070,-12.880,20.580
-0.207,-0.083,1.117,-10.080,-19.740,28.840
-0.223,-0.088,1.011,-4.900,-22.890,36.260
-0.242,-0.117,0.942,8.540,-22.120,43.050
-0.243,-0.248,0.899,25.410,-19.950,45.570
-0.241,-0.353,0.850,34.720,-15.260,42.560
-0.240,-0.423,0.828,40.460,-5.670,36.400
-0.250,-0.514,0.872,47.600,0.070,26.530
-0.284,-0.555,0.957,51.450,2.450,12.880
-0.333,-0.508,0.990,48.020,5.740,1.260
-0.378,-0.372,1.029,46.970,10.780,-4.970
-0.366,-0.204,1.153,44.870,10.360,-3.780
-0.364,-0.072,1.247,49.630,3.500,4.130
-0.352,-0.137,1.247,49.210,-3.500,5.460
-0.357,-0.213,1.187,46.550,-6.930,3.920
-0.373,-0.206,1.192,46.270,-10.500,2.660
-0.377,-0.148,1.181,47.600,-14.840,3.290
-0.403,-0.167,1.143,44.520,-20.300,4.340
-0.428,-0.146,1.043,39.620,-22.050,4.900
-0.483,-0.176,0.919,32.340,-19.110,4.060
-0.535,-0.334,0.886,18.200,-14.560,-8.330
-0.617,-0.463,0.809,10.290,-6.650,-26.810
-0.659,-0.477,0.955,-2.310,4.060,-45.220
-0.598,-0.378,1.150,-3.710,0.770,-52.850
-0.505,-0.165,1.369,-0.420,-14.910,-50.750
-0.473,-0.115,1.470,-0.840,-50.190,-50.540
-0.483,0.028,1.270,5.390,-71.680,-42.630
-0.495,0.198,0.961,-5.390,-80.150,-22.470
-0.546,0.298,0.527,-9.100,-67.200,0.980
-0.594,0.239,0.526,-21.630,-52.290,21.350
-0.655,0.048,0.567,-31.010,-41.930,34.650
-0.702,-0.337,0.611,-47.740,-30.240,32.340
-0.714,-0.323,0.863,-54.810,-17.990,33.250
-0.776,-0.199,1.158,-69.510,-27.230,41.090
-0.833,-0.125,1.223,-59.080,-36.820,43.540
-0.854,-0.207,1.217,-44.170,-39.060,42.980
-0.840,-0.255,1.294,-12.740,-42.840,39.410
-0.807,-0.208,1.307,31.430,-63.210,37.450
-0.804,-0.118,1.022,50.260,-68.600,40.740
-0.706,0.036,0.690,72.310,-55.160,51.380
-0.689,0.091,0.580,57.890,-46.550,69.090
-0.641,0.188,0.484,46.200,-32.690,86.380
-0.610,0.164,0.569,17.220,-21.280,103.110
-0.626,-0.047,0.645,-10.430,-12.250,107.240
-0.608,-0.310,0.828,-29.120,-10.080,97.790
-0.559,-0.382,1.052,-49.350,-17.990,91.700
-0.485,-0.402,1.182,-51.940,-37.030,87.360
-0.418,-0.453,1.156,-46.340,-51.100,78.400
-0.354,-0.601,1.006,-35.280,-57.190,67.690
-0.273,-0.645,0.928,-24.220,-57.680,52.990
-0.168,-0.589,0.942,-20.790,-65.870,39.410
-0.079,-0.359,0.778,-17.710,-70.070,33.390
-0.016,-0.253,0.584,-27.160,-59.990,31.640
0.016,-0.148,0.466,-35.350,-45.920,33.250
0.030,-0.066,0.573,-45.430,-35.280,36.960
0.041,-0.051,0.765,-49.560,-34.790,39.970
0.075,-0.104,0.751,-47.460,-47.110,41.370
0.056,-0.252,0.683,-46.970,-40.530,33.810
0.063,-0.269,0.691,-31.220,-29.400,26.950
0.116,-0.279,0.842,-16.590,-28.770,24.290
0.165,-0.430,0.888,-9.730,-32.620,14.770
0.171,-0.548,0.852,-8.260,-26.810,-2.030

0.745,0.128,2.181,58.380,76.510,55.300
0.756,0.161,2.673,48.650,5.040,45.990
0.808,0.367,2.178,38.570,-42.630,52.360
0.834,0.375,1.339,36.050,-49.560,57.260
0.870,0.265,1.037,18.620,-44.100,54.880
0.919,0.469,0.754,-14.070,-31.920,64.610
0.961,0.499,0.546,-22.120,-15.400,77.350
0.982,0.389,0.303,-47.040,2.380,84.840
0.977,0.265,0.104,-62.580,30.310,85.330
0.928,0.277,0.112,-69.300,64.190,86.030
0.839,0.295,0.325,-69.510,91.980,88.480
0.701,0.166,0.616,-59.990,114.100,74.200
0.484,0.343,1.138,-58.310,141.260,67.480
0.358,0.511,2.515,-23.100,122.990,81.760
0.505,0.021,3.451,29.680,19.810,66.290
0.565,-0.650,3.231,9.940,-102.760,6.790
0.593,-0.430,1.766,-9.520,-144.690,-9.450
0.632,0.002,0.572,-29.260,-114.380,-9.380
0.624,0.293,0.390,-67.270,-94.640,-1.330
0.587,0.435,0.280,-103.110,-80.430,12.320
0.552,0.369,0.135,-121.660,-63.140,20.160
0.518,0.285,0.003,-135.310,-40.670,24.920
0.509,0.296,-0.132,-143.220,-20.370,39.200
0.447,0.171,-0.256,-150.010,6.370,55.090
0.345,-0.310,-0.289,-146.930,36.050,50.050
0.226,-0.628,-0.260,-139.790,76.860,32.550
0.059,-0.756,-0.185,-121.030,108.220,13.020
-0.105,-0.792,-0.006,-75.600,137.060,-19.250
-0.325,-0.715,0.322,-47.600,173.390,-45.430
-2.086,-1.600,1.159,280.000,122.570,-204.400
-0.183,0.714,1.095,15.960,121.520,-174.580
0.226,2.871,0.783,10.080,178.010,110.180
-0.936,1.161,2.681,197.750,-2.870,186.340
-1.220,-2.443,1.107,40.880,-61.390,-48.650
-1.115,-0.481,-0.615,-9.590,34.230,-28.070
-0.973,0.990,-0.442,-33.810,111.580,55.790
-1.254,0.721,0.299,-80.570,134.540,111.160
-1.393,0.026,0.481,-113.540,149.870,125.930
-1.610,-0.395,0.753,-111.580,161.000,113.260
-1.714,-0.725,1.068,-93.730,165.550,96.880
-1.577,-0.961,1.464,-56.700,152.250,77.630
-1.539,-1.788,1.584,-2.170,129.710,-1.890
-1.594,-2.755,1.598,-10.570,121.730,-146.930
-1.491,-1.726,1.647,-11.690,119.280,-224.560
-1.401,-0.491,1.880,2.030,97.160,-240.940
-1.282,0.380,1.886,25.760,61.040,-203.490
-1.169,0.593,1.462,64.330,31.220,-165.900
-1.106,0.324,1.134,80.920,28.070,-162.330
-1.088,0.142,0.908,87.850,33.320,-176.400
-0.974,0.449,0.841,85.960,36.960,-167.230
-0.762,0.712,0.787,61.740,40.530,-139.720
-0.555,0.919,0.800,28.490,42.140,-92.330
-0.498,0.811,0.784,5.600,44.030,-49.980
-0.467,0.329,0.827,-34.300,47.810,-21.420
-0.417,-0.089,0.915,-79.940,51.520,-21.350
-0.385,-0.412,1.045,-118.860,53.060,-38.500
-0.364,-0.283,1.239,-157.570,43.610,-44.030
-0.354,-0.124,1.314,-145.810,28.840,-32.690
-0.350,-0.128,1.306,-124.880,10.220,-27.860
-0.337,-0.163,1.188,-108.010,5.810,-21.490
-0.318,-0.106,1.149,-59.920,2.590,-16.870
-0.342,-0.086,1.208,-40.530,-6.090,-11.690
-0.379,-0.034,1.162,-14.210,-11.480,-4.970
-0.381,-0.126,1.133,12.040,-17.430,-5.950
-0.329,-0.111,1.085,25.970,-26.180,-3.850
-0.259,-0.013,1.024,28.980,-36.960,5.950
-0.250,0.001,0.837,23.520,-41.020,16.870
-0.235,-0.137,0.680,12.460,-34.300,22.820
-0.200,-0.173,0.689,-1.820,-28.350,33.180
-0.217,-0.455,0.701,-18.410,-23.450,26.180
-0.252,-0.857,0.768,-31.290,-17.290,6.230
-0.277,-0.830,0.953,-41.580,-14.630,-9.730
-0.281,-0.689,1.045,-19.250,-21.210,-24.430
-0.282,-0.559,0.953,-22.190,-24.920,-32.900
-0.222,-0.464,0.761,-1.540,-15.750,-38.500
-0.193,-0.308,0.771,20.930,-9.380,-34.300
-0.168,-0.161,0.841,38.150,-8.610,-26.390
-0.208,-0.151,0.936,43.750,-12.460,-20.230
-0.230,-0.136,0.883,43.890,-10.500,-13.790
-0.232,-0.150,0.859,37.800,-5.950,-1.540
-0.218,-0.293,0.892,30.730,-2.450,1.330
-0.218,-0.417,0.921,18.480,2.100,0.000
-0.248,-0.405,0.987,7.210,5.600,-3.360
-0.265,-0.275,1.039,2.730,9.030,0.420
-0.283,-0.225,1.168,7.840,11.620,3.360
-0.303,-0.217,1.295,14.350,8.470,5.040
-0.314,-0.189,1.398,24.220,0.910,7.630
-0.341,-0.121,1.483,39.620,-11.900,9.870
-0.386,-0.044,1.444,48.650,-25.200,13.860
-0.426,0.017,1.257,62.580,-33.740,20.720
-0.443,0.091,1.166,75.530,-36.050,31.640
-0.479,0.064,1.054,84.840,-32.480,42.910
-0.510,0.037,1.023,86.730,-24.080,52.150
-0.541,-0.005,1.168,89.040,-18.760,61.810
-0.578,-0.142,1.262,92.050,-20.790,68.740
-0.625,-0.414,1.330,92.820,-21.560,62.160
-0.659,-0.501,1.432,92.890,-23.380,53.760
-0.649,-0.524,1.667,95.060,-36.540,42.840
-0.637,-0.422,1.730,94.570,-59.990,32.270
-0.672,-0.356,1.572,97.650,-82.460,23.450
-0.721,-0.308,1.103,102.130,-89.880,12.600
-0.691,-0.135,0.841,112.840,-79.380,12.110
-0.619,0.122,0.775,112.140,-73.360,23.450
-0.594,0.198,0.634,104.650,-64.540,40.950
-0.563,0.171,0.527,81.620,-49.280,57.260
-0.579,0.063,0.573,58.170,-38.570,75.180
-0.585,-0.102,0.543,36.050,-24.990,83.510
-0.612,-0.304,0.731,1.820,0.280,79.520
-0.717,-0.400,1.168,-19.250,9.520,68.880
-0.725,-0.560,1.820,-27.300,-17.010,40.880
-0.636,-0.679,2.040,-17.360,-69.580,17.780
-0.486,-0.583,1.521,-6.370,-129.150,2.310
-0.484,-0.372,0.825,13.930,-134.820,-7.630
-0.471,0.031,0.308,28.840,-112.630,-0.560
-0.444,0.198,0.158,29.190,-86.800,12.950
-0.364,0.337,0.195,19.390,-55.790,35.770
-0.355,0.350,0.361,5.460,-36.400,61.600
-0.385,0.121,0.671,-4.970,-30.240,70.140
-0.398,-0.067,0.958,-10.360,-35.560,71.330

0.587,-0.597,1.407,-26.950,49.700,6.300
0.624,-0.694,1.349,-16.590,45.430,-17.500
0.663,-0.726,1.178,-10.290,47.110,-42.000
0.616,-0.683,1.116,3.990,58.940,-65.730
0.584,-0.386,1.224,36.470,64.260,-85.750
0.577,-0.187,1.372,51.590,61.180,-91.000
0.489,0.016,1.560,38.990,45.850,-92.750
0.470,0.217,1.208,60.130,58.100,-83.860
0.491,0.334,1.404,88.690,58.800,-70.840
0.501,0.291,1.561,80.290,39.900,-60.480
0.525,0.321,1.312,64.400,34.230,-50.750
0.541,0.191,1.123,48.230,40.110,-47.460
0.541,0.070,1.060,33.600,51.030,-48.580
0.533,-0.015,1.078,16.870,58.800,-53.620
0.506,-0.040,1.178,3.080,63.980,-59.150
0.483,-0.013,1.270,6.440,66.430,-61.810
0.455,0.110,1.359,25.620,67.410,-54.250
0.420,-0.061,1.620,18.410,50.330,-63.700
0.404,0.031,1.675,35.840,34.720,-64.260
0.427,-0.004,1.708,60.830,15.470,-70.000
0.454,-0.120,1.683,66.920,-5.880,-78.890
0.459,-0.134,1.446,74.270,-23.520,-87.150
0.439,-0.099,1.285,77.770,-27.650,-93.730
0.436,0.002,1.190,87.920,-27.930,-94.570
0.423,0.056,1.147,89.880,-30.100,-93.170
0.404,0.137,1.067,85.540,-29.890,-89.810
0.382,0.220,1.022,86.730,-28.910,-84.490
0.367,0.258,0.978,83.160,-25.900,-78.890
0.377,0.380,0.976,77.140,-21.420,-70.280
0.367,0.436,1.004,74.060,-15.470,-61.110
0.376,0.447,1.105,83.020,-17.780,-49.840
0.415,0.349,1.200,74.550,-31.570,-38.500
0.441,0.141,1.192,64.120,-45.920,-39.550
0.487,0.110,1.075,28.770,-56.210,-35.210
0.422,0.052,0.745,15.120,-52.150,-36.330
0.375,0.079,0.601,7.070,-41.020,-39.130
0.392,0.123,0.522,-4.970,-23.870,-39.970
0.383,0.091,0.579,-11.830,-9.170,-41.720
0.355,0.117,0.857,-23.030,-2.590,-42.350
0.313,0.152,0.791,-34.090,5.320,-42.980
0.303,0.245,0.852,-37.800,9.450,-37.660
0.317,0.290,0.944,-34.160,9.940,-31.640
0.323,0.289,0.975,-34.230,5.670,-22.680
0.317,0.231,0.906,-30.800,7.630,-19.600
0.309,0.159,0.918,-24.150,8.750,-18.760
0.288,0.129,0.973,-23.100,6.510,-18.480
0.285,0.126,0.982,-20.790,3.640,-16.030
0.294,0.101,0.951,-25.760,0.910,-14.140
0.292,0.062,0.840,-26.180,6.020,-12.810
0.278,0.048,0.831,-25.620,16.100,-12.600
0.273,0.039,0.926,-22.260,20.230,-14.000
0.294,0.096,1.049,-17.220,18.130,-10.500
0.280,0.089,1.133,-18.270,10.640,-8.050
0.255,0.068,1.086,-11.410,4.550,-9.170
0.267,0.037,1.088,-3.780,0.700,-10.360
0.264,0.045,1.089,-1.750,-3.220,-11.690
0.264,0.126,1.066,5.530,-6.090,-9.870
0.280,0.158,1.053,11.480,-9.520,-7.280
0.285,0.187,1.033,16.100,-12.950,-4.130
0.279,0.203,0.964,18.060,-12.320,-1.120
0.270,0.256,0.931,20.020,-8.820,2.800
0.275,0.278,0.958,16.310,-7.210,7.210
0.279,0.262,0.937,11.550,-3.780,11.130
0.278,0.241,0.933,8.680,1.890,14.000
0.272,0.221,0.997,8.120,4.060,16.450
0.264,0.175,1.037,4.830,3.780,16.870
0.251,0.136,1.026,5.180,6.020,15.610
0.258,0.116,1.074,4.970,7.070,14.070
0.267,0.142,1.147,3.990,3.220,14.980
0.263,0.147,1.185,5.180,-5.040,16.590
0.244,0.146,1.145,11.130,-8.330,17.640
0.262,0.178,1.116,23.590,-8.960,21.840
0.291,0.162,1.114,29.120,-11.830,24.150
0.310,0.136,1.057,34.090,-13.370,25.760
0.338,0.122,0.991,38.570,-12.810,26.810
0.363,0.131,0.941,37.310,-8.610,29.120
0.382,0.129,0.944,33.180,-3.430,29.260
0.399,0.140,0.993,24.500,0.000,30.240
0.422,0.150,1.048,18.830,2.870,32.060
0.449,0.145,1.088,15.540,3.570,33.600
0.469,0.139,1.137,13.090,3.640,34.370
0.478,0.145,1.204,15.400,2.590,35.000
0.490,0.184,1.293,25.830,-3.220,37.380
0.506,0.205,1.351,40.810,-12.740,40.390
0.534,0.180,1.350,48.370,-29.540,41.230
0.562,0.138,1.225,52.640,-35.840,39.830
0.591,0.100,1.077,56.840,-32.900,35.840
0.630,0.113,1.055,60.340,-29.890,33.530
0.669,0.107,1.093,54.740,-31.570,29.120
0.699,0.055,1.093,45.640,-32.760,18.480
0.718,0.118,1.057,23.800,-28.840,10.780
0.735,0.457,1.058,4.970,-22.330,16.660
0.748,0.620,1.150,5.880,-24.150,28.280
0.768,0.656,1.118,5.950,-27.510,39.970
0.787,0.579,0.879,4.760,-18.270,47.670
0.805,0.472,0.802,24.780,-7.910,52.640
0.821,0.426,0.719,23.240,1.050,54.110
0.826,0.529,0.573,31.850,23.940,62.090
0.777,0.529,0.616,35.490,42.350,65.520
0.727,0.473,0.805,0.700,55.930,57.050
0.661,0.571,1.056,-14.070,57.120,57.960
0.678,0.752,1.201,-3.430,49.560,71.400
0.716,0.690,1.197,9.030,42.910,80.780
0.717,0.460,1.277,3.640,36.750,76.440
0.706,0.313,1.293,-19.110,26.250,67.480
0.721,0.251,1.225,-42.350,19.600,57.050
0.745,0.231,1.173,-45.290,14.560,51.030
0.763,0.156,1.203,-54.740,-14.700,39.690
0.801,0.164,1.034,-67.130,-14.420,30.730
0.885,0.246,0.744,-77.980,-15.400,30.800
0.958,0.043,0.517,-107.030,-4.130,30.730
0.983,-0.147,0.354,-126.070,16.870,16.590
0.958,-0.235,0.486,-137.620,44.660,-2.100
0.921,0.035,0.533,-126.980,49.280,-6.580
0.848,0.499,0.578,-139.440,53.200,15.680
0.786,0.493,0.260,-99.190,77.980,32.060
0.677,0.206,0.285,-97.580,107.170,28.420
0.565,0.083,0.359,-72.590,142.520,19.320
0.443,0.173,0.724,-50.820,157.710,23.800

-3.229,-2.533,2.377,-432.250,-160.790,-398.650
-0.032,2.397,-0.373,-446.600,91.490,-53.620
-1.802,4.746,1.381,146.930,26.670,344.610
-1.754,0.568,1.807,150.920,-102.340,313.950
-1.846,-2.508,-0.216,121.450,5.390,141.050
-2.064,-2.392,0.316,173.390,37.730,56.980
-2.252,-3.396,0.921,80.640,30.870,-179.130
-2.538,-2.394,0.761,7.560,57.890,-290.150
-2.238,-0.529,1.071,-18.130,87.640,-311.640
-1.982,0.475,1.554,6.790,76.580,-283.220
-1.765,1.210,1.847,43.400,23.030,-198.100
-1.580,0.896,1.367,100.240,-5.460,-177.170
-1.258,0.640,0.883,136.500,5.180,-172.830
-1.097,0.801,0.973,140.700,-0.700,-155.190
-0.935,1.007,0.930,85.470,-6.860,-118.930
-0.853,1.139,0.846,35.560,-10.080,-73.150
-0.828,0.981,0.701,-23.170,-3.850,-33.600
-0.773,0.549,0.667,-102.830,15.330,-6.300
-0.706,0.185,0.951,-152.110,26.810,7.280
-0.675,-0.040,1.457,-192.990,11.690,13.720
-0.561,-0.322,1.596,-207.270,-9.660,5.670
-0.493,-0.571,1.631,-187.950,-35.910,-15.260
-0.456,-0.434,1.427,-151.340,-60.480,-19.810
-0.408,-0.322,0.874,-120.120,-61.810,-17.360
-0.399,-0.195,0.645,-63.630,-49.280,-12.460
-0.348,-0.252,0.515,-17.920,-34.020,-8.400
-0.314,-0.206,0.595,12.950,-24.360,-2.170
-0.281,-0.019,0.577,14.910,-10.920,15.610
-0.336,-0.154,0.650,16.660,2.590,23.660
-0.320,-0.265,0.763,15.960,10.570,24.850
-0.341,-0.481,0.801,5.810,21.350,16.310
-0.322,-0.409,0.970,6.370,30.380,13.930
-0.306,-0.365,1.273,0.350,23.240,10.500
-0.308,-0.370,1.340,3.990,5.390,6.300
-0.318,-0.383,1.226,3.780,-0.140,0.700
-0.298,-0.251,1.136,3.220,0.980,1.610
-0.284,-0.226,1.122,4.130,0.700,0.910
-0.225,-0.159,1.047,0.210,-3.430,8.400
-0.195,-0.136,0.970,-1.120,-2.870,15.470
-0.190,-0.244,0.870,-7.350,2.590,15.610
-0.194,-0.298,0.874,-15.680,8.750,13.860
-0.202,-0.258,0.945,-35.140,11.830,13.650
-0.230,-0.232,1.028,-41.790,11.200,13.020
-0.259,-0.164,1.106,-41.720,9.450,14.980
-0.252,-0.157,1.174,-41.300,4.760,18.130
-0.251,-0.225,1.177,-40.390,0.560,15.120
-0.262,-0.324,1.149,-37.590,-0.420,9.870
-0.259,-0.271,1.132,-32.760,1.680,9.660
-0.249,-0.220,1.210,-26.180,-2.870,12.670
-0.256,-0.331,1.179,-18.480,-9.380,8.890
-0.262,-0.327,1.066,-18.970,-8.120,8.120
-0.254,-0.255,1.010,-14.350,-5.040,10.850
-0.254,-0.259,1.018,-2.590,-5.810,13.160
-0.264,-0.233,1.040,0.280,-8.610,16.240
-0.286,-0.144,0.944,2.800,-7.910,24.150
-0.325,-0.163,0.883,8.260,-1.820,29.330
-0.356,-0.288,0.886,11.620,3.920,27.510
-0.371,-0.302,0.890,14.000,10.010,25.690
-0.364,-0.272,0.917,18.130,14.910,25.480
-0.369,-0.265,0.888,22.120,18.760,24.570
-0.382,-0.228,0.853,29.680,22.960,25.340
-0.407,-0.185,0.812,36.470,26.600,28.000
-0.430,-0.176,0.746,37.100,35.840,30.030
-0.476,-0.238,0.679,36.050,46.060,28.420
-0.506,-0.241,0.751,35.070,52.570,26.670
-0.532,-0.147,0.863,34.580,52.850,29.260
-0.557,-0.082,0.946,36.960,47.950,33.460
-0.593,-0.035,1.015,40.810,45.640,38.220
-0.606,-0.016,1.160,42.140,37.240,43.890
-0.606,0.008,1.220,41.650,25.340,52.920
-0.629,-0.134,1.231,43.330,11.690,53.690
-0.694,-0.322,1.220,43.960,7.070,45.710
-0.668,-0.419,1.303,40.950,-2.520,34.580
-0.631,-0.404,1.359,37.030,-19.180,29.330
-0.646,-0.469,1.222,33.810,-39.830,20.020
-0.654,-0.419,1.028,30.660,-46.200,15.260
-0.674,-0.271,0.905,24.780,-49.350,15.890
-0.722,-0.237,0.790,15.540,-50.610,15.330
-0.745,-0.175,0.659,9.870,-41.020,16.940
-0.736,-0.026,0.673,9.800,-37.730,26.180
-0.748,-0.010,0.651,15.680,-34.720,38.220
-0.791,-0.168,0.573,26.530,-26.740,37.870
-0.803,-0.198,0.588,40.880,-12.110,35.980
-0.770,-0.173,0.684,38.850,-6.300,35.980
-0.713,-0.041,0.855,50.610,-6.370,38.500
-0.689,-0.045,1.050,42.770,-13.790,38.710
-0.652,0.016,1.148,43.610,-26.950,42.210
-0.620,-0.007,1.097,37.170,-39.900,43.400
-0.603,-0.021,0.932,37.030,-46.060,46.060
-0.604,-0.015,0.751,33.460,-45.150,48.370
-0.614,0.103,0.648,39.410,-41.790,61.670
-0.615,0.190,0.550,35.280,-33.600,73.710
-0.579,0.122,0.505,30.170,-1.680,84.910
-0.521,-0.083,0.599,20.720,-5.110,84.140
-0.472,-0.281,0.791,-2.030,2.310,71.330
-0.369,-0.176,1.091,-19.880,-3.430,71.400
-0.265,-0.068,1.290,-26.110,-28.210,77.070
-0.240,-0.164,1.298,-36.960,-44.520,74.340
-0.249,-0.241,1.221,-36.750,-52.570,64.890
-0.223,-0.187,1.231,-29.750,-64.470,61.040
-0.214,-0.185,1.115,-26.390,-78.890,53.970
-0.197,-0.129,0.906,-16.310,-79.240,48.510
-0.166,-0.208,0.733,-10.710,-74.480,42.630
-0.125,-0.320,0.581,-8.400,-57.680,32.760
-0.061,-0.342,0.554,-2.380,-42.910,22.470
0.000,-0.348,0.700,-7.140,-35.420,14.770
0.049,-0.260,0.786,-9.800,-29.050,10.570
0.074,-0.168,0.952,-11.200,-23.800,10.500
0.111,-0.046,1.226,-0.350,-35.770,14.840
0.125,-0.057,1.293,-0.070,-58.310,15.960
0.137,-0.000,1.225,1.260,-66.430,20.090
0.169,0.159,1.261,15.120,-79.800,35.420
0.168,0.175,1.191,24.220,-95.130,46.410
0.158,0.071,0.976,34.160,-98.000,51.310
0.169,-0.051,0.757,46.060,-91.350,49.280
0.183,-0.231,0.640,49.420,-80.640,36.750
0.216,-0.267,0.536,52.710,-67.760,29.190
0.251,-0.293,0.402,52.430,-43.890,23.030
0.471,-0.237,0.573,46.480,-20.930,20.020

0.557,0.516,1.601,39.270,-2.590,29.820
0.565,0.413,1.975,50.470,-35.700,21.770
0.575,0.341,2.010,50.820,-87.780,8.750
0.549,0.334,1.830,57.400,-118.160,-3.710
0.567,0.506,1.609,73.430,-145.180,2.450
0.625,0.747,1.268,76.930,-166.950,21.910
0.714,0.624,0.725,58.660,-174.370,32.620
0.854,0.436,-0.197,14.070,-139.720,37.310
0.958,0.485,-0.714,-28.980,-78.680,51.940
1.050,0.729,-0.837,-67.760,-10.500,77.840
1.086,0.654,-0.525,-82.810,54.880,93.660
1.075,0.551,-0.433,-95.900,91.210,109.900
1.009,0.260,-0.315,-95.900,131.740,110.460
0.838,0.041,0.029,-82.880,170.590,84.280
0.598,0.374,0.902,-102.130,183.400,86.800
0.442,0.472,1.450,-32.200,181.510,89.810
0.402,0.234,2.451,22.960,101.500,79.590
0.503,0.037,2.283,45.920,25.480,65.800
0.618,-0.048,1.288,40.740,7.630,57.680
0.655,-0.127,0.704,30.730,24.430,41.860
0.667,-0.192,0.499,2.590,44.870,28.910
0.673,-0.058,0.450,-26.880,63.770,27.160
0.600,-0.036,0.402,-51.100,78.330,26.880
0.486,-0.138,0.387,-64.470,96.950,10.010
0.321,-0.110,0.480,-64.470,119.490,-8.190
0.183,0.143,0.874,-67.900,132.860,-12.530
0.029,0.373,1.624,-56.210,115.990,-6.090
-0.108,0.377,2.279,-55.720,80.990,-16.800
-0.215,0.721,2.800,-6.300,17.080,6.790
-0.193,0.860,2.864,82.670,-82.460,57.540
-0.216,0.094,1.385,151.200,-139.860,56.840
-0.369,-1.504,0.593,139.020,-112.070,-86.940
-0.311,-0.602,0.137,101.850,-72.800,-97.020
-0.191,0.208,0.042,72.940,-39.970,-78.260
-0.184,0.480,0.117,25.550,-10.500,-49.420
-0.244,0.286,0.170,-58.730,9.030,-22.890
-0.342,0.181,0.278,-105.840,26.880,-10.500
-1.900,-2.178,1.384,415.450,-72.660,-232.820
0.590,0.220,-0.866,-392.910,41.650,-46.830
0.274,2.975,-0.999,20.370,157.360,228.690
-0.655,-0.861,1.151,29.540,132.790,78.540
-1.139,-1.168,0.938,-113.330,27.160,3.500
-1.127,-0.286,-0.168,-76.090,90.230,3.220
-1.095,-0.021,0.217,-26.670,143.850,2.730
-1.191,0.129,1.277,-56.910,115.710,15.820
-0.991,0.022,1.158,-82.950,98.700,33.950
-0.996,-0.366,1.027,-84.070,91.770,47.040
-1.172,-0.701,1.086,-82.390,85.400,27.020
-1.154,-0.946,1.177,-95.900,78.050,-4.620
-1.245,-1.111,1.078,-100.800,80.710,-67.550
-1.277,-1.183,1.116,-111.160,94.360,-133.280
-1.138,-0.570,1.423,-126.140,99.610,-155.330
-0.999,0.287,1.693,-92.820,75.950,-108.990
-0.970,0.585,1.686,-20.440,41.790,-87.780
-0.935,0.364,1.383,26.530,28.700,-83.720
-0.939,0.314,1.142,72.660,18.970,-80.990
-0.863,0.321,0.970,110.880,14.770,-78.890
-0.780,0.472,0.810,111.860,20.230,-68.600
-0.716,0.457,0.755,93.240,31.220,-51.100
-0.645,0.366,0.831,56.350,40.810,-35.700
-0.637,0.148,1.040,4.690,39.480,-31.500
-0.621,-0.126,1.143,-65.240,32.060,-37.590
-0.622,-0.249,1.014,-113.050,20.790,-47.740
-0.622,-0.298,1.037,-142.870,16.310,-60.060
-0.455,-0.067,0.993,-182.210,19.460,-58.030
-0.510,0.183,1.103,-173.390,6.510,-36.120
-0.524,0.103,0.960,-140.210,-10.430,-26.250
-0.459,0.082,0.749,-117.740,-3.780,-9.030
-0.484,0.132,0.682,-73.360,3.990,7.770
-0.428,-0.109,0.783,-61.390,11.690,9.100
-0.388,-0.187,0.813,-45.710,14.490,12.110
-0.437,-0.285,0.857,-28.980,15.610,10.080
-0.424,-0.435,0.848,-27.300,20.090,2.590
-0.424,-0.436,0.884,-25.060,24.850,-1.050
-0.413,-0.468,0.971,-21.280,26.180,-9.170
-0.438,-0.489,1.140,-20.090,18.550,-17.290
-0.407,-0.478,1.174,-17.710,8.960,-26.110
-0.390,-0.346,1.118,-19.740,4.060,-30.520
-0.371,-0.201,1.069,-16.800,-2.800,-23.240
-0.374,-0.193,1.002,-11.900,-6.930,-20.160
-0.373,-0.202,0.928,-12.810,-7.140,-18.410
-0.378,-0.142,0.862,-3.360,-7.420,-12.950
-0.371,-0.070,0.803,1.610,-2.520,-1.400
-0.351,-0.046,0.809,-3.010,4.900,6.930
-0.351,-0.066,0.948,-9.590,7.000,14.700
-0.353,-0.108,0.998,-15.890,4.620,20.580
-0.358,-0.195,0.989,-22.540,7.910,22.260
-0.370,-0.289,1.078,-26.670,11.620,20.440
-0.366,-0.323,1.289,-23.380,3.080,17.640
-0.353,-0.337,1.367,-13.930,-13.090,14.840
-0.356,-0.341,1.246,-10.570,-23.800,12.390
-0.389,-0.331,1.044,-11.830,-14.910,8.820
-0.415,-0.245,1.135,-9.520,-13.860,12.180
-0.440,-0.154,1.194,1.120,-18.480,17.430
-0.457,-0.174,1.149,11.060,-18.970,17.360
-0.459,-0.295,1.168,13.650,-16.800,9.310
-0.442,-0.230,1.184,29.050,-16.870,9.380
-0.424,-0.239,1.265,40.810,-23.100,7.420
-0.417,-0.213,1.280,42.280,-28.700,6.370
-0.410,-0.097,1.215,35.560,-31.780,12.670
-0.425,-0.005,1.204,34.720,-37.450,21.770
-0.495,-0.021,1.153,29.190,-41.510,27.930
-0.543,-0.145,1.030,14.630,-38.710,29.190
-0.573,-0.175,0.989,7.490,-31.360,30.170
-0.733,-0.185,1.117,1.820,-33.740,29.960
-0.666,-0.232,1.067,5.740,-36.470,24.990
-0.667,-0.387,0.956,17.360,-32.550,12.320
-0.598,-0.413,0.896,33.810,-25.760,-1.330
-0.468,-0.296,0.944,47.250,-27.930,-8.050
-0.384,-0.013,0.904,57.960,-34.860,-0.770
-0.354,0.102,0.749,53.200,-19.460,11.970
-0.389,0.207,0.482,45.500,-24.500,29.330
-0.442,0.238,0.337,26.880,-4.620,47.460
-0.511,0.055,0.331,3.780,20.860,61.320
-0.580,-0.107,0.560,-11.060,37.240,63.980
-0.640,-0.245,0.887,-23.520,37.590,61.390
-0.709,-0.315,0.978,-30.660,37.800,56.350
-0.734,-0.379,1.096,-20.020,33.880,46.760
-0.752,-0.482,1.157,-4.830,25.760,31.990

0.296,1.048,1.694,-38.150,105.560,-24.990
0.328,1.228,1.949,-22.260,67.480,7.420
0.344,1.094,2.031,-14.280,27.860,36.120
0.384,0.651,1.797,-41.230,-8.960,41.860
0.338,0.113,1.785,-42.700,-37.800,17.920
0.333,0.101,1.548,-23.940,-72.590,-13.720
0.387,0.570,1.020,-29.190,-81.830,-6.090
0.470,0.913,0.293,-30.380,-46.690,7.840
0.447,0.966,0.254,-43.260,-14.070,26.180
0.442,0.876,0.366,-71.890,8.050,29.470
0.435,0.856,0.482,-90.020,23.310,36.820
0.440,0.864,0.544,-99.540,38.780,49.420
0.422,0.721,0.601,-117.530,52.360,52.430
0.365,0.623,0.715,-120.680,62.580,55.230
0.302,0.502,0.898,-104.160,67.480,54.320
0.297,0.394,1.101,-80.290,62.930,48.860
0.343,0.420,1.309,-66.710,39.480,49.140
0.344,0.505,1.259,-42.630,26.670,66.640
0.341,0.371,1.238,-34.230,18.130,76.650
0.340,0.017,1.226,-42.000,9.030,67.690
0.312,-0.288,1.202,-54.530,-8.050,41.160
0.317,-0.240,0.958,-72.450,-11.970,22.820
0.342,0.035,0.770,-71.330,-4.340,25.130
0.338,0.013,0.733,-67.550,1.260,23.520
0.310,-0.097,0.667,-71.190,5.110,16.030
0.287,-0.091,0.489,-76.300,17.850,11.410
0.236,-0.098,0.408,-71.610,38.430,6.370
0.174,-0.184,0.410,-58.170,61.180,-5.740
0.077,-0.138,0.664,-53.690,82.390,-15.190
0.010,0.017,0.851,-48.650,92.750,-11.970
-0.046,0.011,1.132,-12.600,91.420,0.560
-0.101,-0.226,1.419,12.040,70.420,-3.430
-0.154,-0.525,1.436,23.870,33.530,-26.600
-0.185,-0.628,1.232,-10.920,17.080,-46.900
-0.186,-0.535,1.015,-72.660,16.100,-55.650
-0.242,-0.581,0.993,-114.030,11.620,-66.710
-0.362,-0.588,0.924,-128.730,6.300,-79.310
-0.439,-0.431,0.810,-120.890,3.780,-90.230
-0.508,-0.234,0.657,-103.180,4.550,-86.660
-2.845,-0.857,1.930,499.870,-195.720,-276.360
0.101,1.156,-2.021,-126.770,0.350,-187.390
-0.071,3.505,-1.009,6.300,192.010,142.310
-0.691,1.235,2.026,211.400,81.130,141.890
-1.338,-2.264,2.074,69.160,-26.040,-13.020
-1.037,-0.024,0.603,140.490,-18.340,10.220
-1.001,-0.748,0.481,136.150,22.750,-16.240
-1.272,-1.386,0.679,86.170,26.110,-74.130
-1.377,-1.515,0.467,26.530,52.290,-143.290
-1.153,-0.400,0.499,0.350,93.380,-138.040
-1.166,-0.248,1.598,-10.990,49.980,-136.500
-1.073,-0.125,1.330,-21.000,18.130,-132.580
-0.996,0.102,0.872,12.740,27.930,-119.910
-1.019,0.053,1.029,22.260,20.230,-120.610
-0.967,0.204,0.924,18.130,14.700,-115.360
-0.893,0.459,0.869,20.160,16.310,-97.930
-0.807,0.724,0.839,0.980,20.650,-58.520
-0.785,0.557,1.051,-24.080,13.440,-39.830
-0.801,0.236,1.070,-47.600,8.400,-35.350
-0.748,0.008,1.085,-73.360,9.800,-39.200
-0.696,-0.058,1.255,-113.610,6.860,-38.920
-0.635,0.056,1.388,-127.820,-8.820,-31.640
-0.536,0.081,1.440,-122.220,-25.550,-21.280
-0.529,-0.109,1.368,-107.240,-41.020,-17.990
-0.511,-0.259,1.099,-104.230,-44.940,-21.560
-0.450,-0.227,0.978,-96.670,-40.250,-19.670
-0.461,-0.229,0.985,-84.490,-41.790,-20.230
-0.440,-0.178,0.898,-59.570,-42.420,-17.220
-0.448,-0.103,0.877,-35.000,-47.320,-12.600
-0.434,-0.163,0.679,-19.110,-42.070,-10.500
-0.399,-0.117,0.578,-14.770,-28.700,-4.620
-0.371,0.002,0.590,-18.970,-8.260,6.930
-0.396,-0.096,0.744,-13.720,1.330,8.820
-0.367,-0.282,0.898,-15.890,3.850,4.830
-0.342,-0.241,1.034,-17.010,0.770,4.060
-0.367,-0.209,1.012,-27.440,2.380,5.810
-0.410,-0.240,1.101,-23.030,1.400,3.920
-0.435,-0.330,1.137,-22.050,-4.270,-3.150
-0.386,-0.318,1.085,-23.450,-3.640,-6.510
-0.358,-0.237,1.029,-25.690,-3.710,-4.830
-0.315,-0.180,1.019,-22.540,-10.220,-0.980
-0.297,-0.172,0.890,-31.640,-6.650,1.050
-0.257,-0.061,0.871,-37.590,-1.050,14.350
-0.209,-0.123,0.970,-40.390,-1.330,21.560
-0.220,-0.249,0.946,-54.460,2.590,23.730
-0.243,-0.346,0.969,-47.180,4.200,20.790
-0.286,-0.416,1.026,-50.120,0.840,15.470
-0.285,-0.401,0.973,-42.770,3.780,11.410
-0.286,-0.390,0.955,-43.400,6.650,7.490
-0.288,-0.286,0.976,-41.230,7.210,8.540
-0.330,-0.284,0.970,-38.080,5.670,7.420
-0.358,-0.288,0.861,-32.270,8.190,6.090
-0.364,-0.243,0.844,4.900,12.810,7.630
-0.353,-0.198,0.877,21.490,15.190,9.450
-0.359,-0.132,0.895,28.700,15.190,15.050
-0.353,-0.099,0.800,33.180,21.630,21.980
-0.366,-0.114,0.785,31.780,31.780,27.650
-0.401,-0.184,0.855,31.080,40.600,29.470
-0.431,-0.171,1.011,33.040,42.980,32.620
-0.461,-0.210,1.214,29.120,33.250,34.090
-0.484,-0.250,1.216,27.300,27.300,34.510
-0.529,-0.349,1.213,25.900,23.450,27.580
-0.581,-0.384,1.233,23.590,19.180,20.090
-0.606,-0.309,1.287,25.200,8.190,17.150
-0.624,-0.253,1.251,28.700,-1.470,14.070
-0.619,-0.205,1.163,35.070,-7.560,12.950
-0.601,-0.180,1.087,43.540,-10.990,13.720
-0.621,-0.176,1.045,45.010,-18.480,13.090
-0.622,-0.115,0.922,46.060,-19.600,18.970
-0.628,-0.091,0.834,55.510,-16.520,27.300
-0.634,-0.222,0.820,66.010,-16.590,29.400
-0.672,-0.363,0.765,64.960,-12.600,26.110
-0.712,-0.339,0.705,57.820,-3.360,26.110
-0.737,-0.305,0.739,49.350,2.870,27.020
-0.752,-0.297,0.721,44.520,10.570,29.820
-0.778,-0.290,0.749,34.860,24.710,29.120
-0.794,-0.220,0.846,43.190,28.980,31.640
-0.792,-0.309,0.925,50.610,30.310,21.210
-0.729,-0.180,1.018,45.010,24.850,16.870
-0.711,0.110,0.962,35.210,16.940,26.950

0.065,-1.146,1.708,-7.490,-39.970,-2.450
0.070,-0.829,1.715,-10.360,-73.570,-41.300
0.102,-0.554,1.483,-8.050,-86.590,-55.580
0.110,-0.395,1.241,-9.310,-93.800,-66.570
0.127,-0.182,1.063,-15.330,-91.490,-74.620
0.137,0.021,0.978,-17.010,-87.570,-72.240
0.142,0.130,0.914,-13.230,-83.300,-68.040
0.152,0.174,0.827,-12.180,-75.600,-65.170
0.177,0.273,0.778,-3.920,-66.570,-55.160
0.185,0.287,0.754,3.010,-55.860,-48.090
0.205,0.249,0.806,13.300,-44.100,-43.470
0.230,0.203,0.882,20.160,-40.180,-41.090
0.249,0.182,0.966,22.470,-37.240,-38.920
0.245,0.137,1.127,21.840,-42.350,-43.330
0.239,0.174,1.109,31.360,-49.000,-41.370
0.263,0.170,1.011,31.010,-48.440,-42.910
0.250,0.157,0.955,28.910,-39.690,-44.940
0.253,0.135,1.082,28.350,-39.970,-46.480
0.273,0.135,1.146,28.210,-48.300,-47.810
0.285,0.097,1.017,24.570,-46.060,-51.590
0.287,0.068,0.906,20.020,-38.220,-58.240
0.317,0.074,0.846,14.980,-27.650,-61.530
0.354,0.093,0.832,22.330,-16.310,-59.920
0.353,0.029,1.128,-0.350,-22.960,-70.350
0.408,0.125,0.635,32.270,-3.080,-59.290
0.363,0.078,0.782,46.340,14.770,-58.660
0.331,0.010,1.006,57.190,17.150,-62.650
0.367,0.102,1.088,60.690,9.870,-57.750
0.375,0.134,1.086,37.800,6.580,-55.580
0.367,0.073,1.006,36.540,10.290,-57.820
0.332,0.022,1.094,24.710,12.600,-63.350
0.338,0.115,1.198,13.650,13.440,-57.540
0.359,0.189,1.294,10.780,3.010,-50.750
0.334,-0.022,1.145,17.570,-0.210,-58.520
0.353,-0.099,1.114,10.920,-7.560,-72.380
0.349,-0.180,0.858,-4.760,6.300,-88.900
0.379,-0.143,0.781,-10.710,34.370,-102.410
0.398,-0.046,0.951,-20.370,45.360,-110.180
0.398,0.038,1.108,-28.210,46.060,-112.910
0.397,0.092,1.247,-22.260,19.040,-111.230
0.402,0.118,1.333,-31.360,21.420,-109.620
0.413,0.141,1.285,-37.310,13.230,-106.190
0.458,0.196,1.237,-40.880,10.080,-97.790
0.482,0.208,1.259,-45.290,4.760,-91.070
0.503,0.183,1.273,-42.630,-3.080,-87.080
0.527,0.152,1.223,-44.800,-12.810,-84.490
0.542,0.162,1.175,-50.610,-15.470,-79.520
0.550,0.242,1.127,-44.450,-17.290,-69.370
0.551,0.228,1.094,-37.380,-20.370,-58.660
0.578,0.202,0.996,-26.600,-19.110,-46.900
0.588,0.121,0.986,-23.730,-16.800,-38.150
0.604,0.121,0.921,-11.830,-8.820,-30.940
0.553,0.088,1.090,-10.920,-6.440,-28.280
0.525,0.124,1.100,-9.730,-7.770,-18.830
0.525,0.163,1.087,6.300,-5.250,-7.910
0.517,0.115,1.138,22.540,-1.750,-0.070
0.495,0.015,1.180,47.320,-4.690,3.850
0.475,-0.130,1.352,59.150,-18.900,-3.010
0.473,-0.103,1.329,59.710,-36.890,-2.800
0.521,-0.100,1.139,70.700,-49.490,-2.030
0.501,-0.172,0.991,92.400,-49.210,-12.530
0.455,-0.232,0.990,65.870,-45.640,-25.690
0.476,0.020,0.996,46.340,-48.090,-21.140
0.513,0.197,0.878,51.450,-43.610,-7.980
0.484,0.183,0.876,66.080,-37.030,2.100
0.477,0.102,0.905,41.090,-29.890,1.750
0.477,0.066,0.997,8.680,-29.400,4.410
0.478,0.092,0.958,7.280,-26.810,8.610
0.439,0.041,1.116,6.160,-22.890,7.840
0.404,0.071,1.093,-6.440,-27.160,7.980
0.425,0.155,1.014,-1.540,-28.280,13.790
0.391,0.066,0.970,-8.610,-25.200,10.010
0.376,0.126,0.917,-6.300,-16.240,11.130
0.383,0.213,0.999,-5.180,-13.160,14.910
0.373,0.278,1.068,-7.700,-15.820,23.590
0.382,0.333,1.034,2.660,-15.820,34.650
0.395,0.282,1.057,6.090,-13.860,41.860
0.413,0.201,1.094,16.450,-13.090,45.360
0.445,0.119,1.208,21.420,-19.460,47.460
0.476,0.046,1.175,23.870,-24.150,45.850
0.491,-0.018,1.146,12.110,-26.600,42.630
0.375,-0.040,1.029,17.990,-22.190,39.200
0.508,-0.034,1.053,19.810,-24.150,35.770
0.523,0.009,0.949,17.290,-23.380,32.270
0.530,0.068,0.813,22.750,-13.160,32.270
0.541,0.170,0.794,23.380,-1.680,37.310
0.543,0.238,0.862,25.620,7.910,43.680
0.531,0.221,0.879,29.750,15.260,48.160
0.523,0.163,0.964,34.650,20.860,48.510
0.511,0.081,1.068,34.090,22.330,41.790
0.522,0.061,1.189,31.500,17.920,35.980
0.554,0.042,1.231,32.760,11.620,29.470
0.601,0.018,1.269,39.690,-1.400,23.730
0.651,-0.047,1.196,37.450,-8.470,16.590
0.690,-0.021,1.075,21.700,-9.100,7.420
0.684,0.134,0.918,16.870,-0.420,4.970
0.677,0.366,0.971,22.050,2.030,14.350
0.695,0.586,0.873,22.050,5.110,31.430
0.656,0.625,0.816,19.460,20.930,44.310
0.606,0.525,0.967,26.040,30.730,51.170
0.570,0.373,1.223,36.190,26.180,48.160
0.581,0.286,1.305,35.280,16.030,42.140
0.592,0.341,1.265,39.760,10.080,39.900
0.595,0.401,1.266,44.660,1.750,40.670
0.622,0.447,1.149,34.930,-7.070,43.470
0.637,0.448,0.985,28.350,-6.230,47.880
0.647,0.424,0.909,10.500,-3.500,50.750
0.638,0.353,0.795,-21.700,3.850,50.260
0.646,0.352,0.730,-34.790,10.500,51.030
0.651,0.302,0.538,-57.680,23.170,50.330
0.653,0.257,0.527,-62.440,40.180,47.670
0.655,0.351,0.630,-60.830,51.870,53.130
0.596,0.367,0.778,-55.860,58.940,54.670
0.541,0.407,0.954,-24.640,60.410,57.050
0.521,0.382,1.164,-1.540,42.490,58.450
0.545,0.363,1.020,16.380,39.270,61.460
0.563,0.187,1.031,38.780,38.990,63.070
0.558,0.026,1.155,27.930,31.080,55.020
0.576,-0.009,1.132,6.300,24.850,48.790

-1.124,-1.034,0.973,42.630,-13.860,31.640
-1.354,-2.023,0.669,-22.890,-4.340,-82.320
-1.447,-1.187,0.449,-77.490,26.320,-149.800
-1.470,-0.574,0.621,-23.310,-16.590,-173.110
-1.768,-1.485,0.416,-209.650,23.590,-292.600
-0.956,1.112,0.355,-171.500,128.100,-206.500
-0.976,2.589,1.518,47.390,54.460,25.620
-1.378,1.447,1.109,209.510,-52.220,94.570
-1.178,-0.597,0.154,182.700,0.350,-5.530
-1.220,-0.382,0.011,81.620,65.170,-32.690
-1.201,0.252,0.536,102.620,73.920,-25.970
-1.189,-0.043,0.912,78.400,66.780,-43.470
-1.115,-0.163,0.990,49.350,66.570,-55.790
-1.073,-0.300,1.186,-2.520,80.080,-82.530
-1.048,-0.259,1.666,-44.030,60.620,-101.710
-0.896,0.055,2.090,-69.860,18.900,-94.150
-0.794,0.299,1.945,-72.520,-20.510,-68.880
-0.709,0.122,1.517,-62.790,-33.250,-67.620
-0.599,0.129,1.221,-59.780,-33.670,-64.470
-0.542,0.345,1.132,-52.220,-38.010,-42.700
-0.558,0.218,0.970,-29.820,-44.940,-30.170
-0.521,0.052,0.713,-30.590,-36.120,-30.030
-0.431,0.170,0.518,-30.940,-17.500,-13.860
-0.424,0.144,0.460,-24.290,5.460,-5.670
-0.326,0.018,0.636,-43.820,26.250,12.180
-0.351,-0.159,1.058,-49.700,12.460,15.470
-0.385,-0.416,0.831,-65.170,5.460,5.810
-0.367,-0.238,0.600,-54.740,34.510,11.620
-0.382,-0.358,1.076,-64.470,34.230,8.190
-0.396,-0.327,1.312,-60.760,22.680,3.780
-0.408,-0.318,1.477,-46.690,5.250,-4.970
-0.414,-0.136,1.412,-42.140,-10.710,-2.450
-0.359,-0.017,1.197,-27.860,-11.690,5.670
-0.375,-0.098,1.210,-24.010,-21.420,5.950
-0.343,-0.058,1.032,-22.400,-24.290,12.950
-0.319,-0.147,0.947,-17.290,-23.870,12.530
-0.300,-0.113,0.837,-16.940,-15.260,16.660
-0.296,-0.166,0.887,-16.800,-14.280,16.940
-0.299,-0.216,0.852,-17.850,-11.620,14.910
-0.299,-0.316,0.829,-18.760,-6.790,10.150
-0.282,-0.268,0.850,-22.890,1.330,11.200
-0.284,-0.210,0.886,-21.280,7.000,13.860
-0.323,-0.284,0.976,-22.680,8.610,9.940
-0.357,-0.321,1.078,-30.520,9.450,3.710
-0.331,-0.226,1.179,-49.700,6.790,5.460
-0.364,-0.201,1.257,-50.330,-4.900,5.250
-0.378,-0.276,1.104,-40.810,-7.770,2.310
-0.372,-0.240,1.016,-41.230,-6.580,1.750
-0.352,-0.214,0.985,-42.000,-5.460,2.450
-0.333,-0.232,0.974,-37.800,-3.920,2.590
-0.318,-0.227,0.972,-35.420,-2.240,3.990
-0.298,-0.211,1.013,-28.770,-2.380,6.860
-0.307,-0.233,1.014,-29.260,-1.960,7.350
-0.301,-0.281,1.013,-32.340,-1.400,5.950
-0.302,-0.303,1.013,-29.680,-0.840,4.550
-0.309,-0.303,1.003,-17.010,-2.100,2.100
-0.298,-0.315,0.992,-1.750,-2.730,0.560
-0.306,-0.234,0.946,7.560,-1.190,2.450
-0.321,-0.185,0.919,15.540,2.100,6.790
-0.334,-0.215,0.952,22.120,4.410,7.350
-0.353,-0.241,0.975,23.170,3.920,7.630
-0.365,-0.288,0.955,22.400,6.090,5.180
-0.360,-0.311,0.956,20.510,8.050,0.980
-0.348,-0.129,0.985,16.240,7.560,1.470
-0.346,-0.102,1.021,16.100,4.270,9.030
-0.341,-0.090,1.064,13.790,-2.100,15.960
-0.365,-0.147,1.112,9.030,-11.760,19.740
-0.392,-0.205,1.021,13.370,-17.150,17.710
-0.420,-0.308,0.943,9.590,-18.340,11.550
-0.430,-0.314,0.880,26.110,-16.660,6.020
-0.418,-0.269,0.899,33.950,-17.920,3.430
-0.398,-0.120,0.901,53.830,-21.700,9.030
-0.400,-0.169,0.820,66.150,-22.190,11.830
-0.403,-0.314,0.735,74.970,-15.190,5.460
-0.407,-0.386,0.754,68.320,-11.270,-6.860
-0.396,-0.247,0.734,53.200,-7.560,-9.800
-0.405,-0.075,0.718,41.440,4.690,-9.310
-0.453,0.141,0.864,31.920,12.600,0.700
-0.469,0.267,1.048,29.260,9.730,35.070
-0.510,0.119,1.157,44.100,2.380,30.660
-0.564,-0.144,1.209,53.760,-5.460,27.020
-0.636,-0.520,1.182,68.880,-13.090,5.880
-0.609,-0.779,1.155,77.490,-14.420,-25.060
-0.527,-0.506,1.177,65.660,-22.400,-43.890
-0.442,-0.150,1.048,48.020,-33.740,-37.590
-0.376,0.025,0.860,27.930,-29.190,-27.160
-0.348,0.109,0.793,-11.340,-23.310,-16.030
-0.341,0.283,0.854,-32.550,-11.340,2.310
-0.376,0.335,0.792,-47.460,-8.050,25.340
-0.433,0.028,0.766,-49.630,-1.120,36.050
-0.521,-0.195,0.770,-35.280,10.640,31.220
-0.550,-0.188,0.970,-13.370,14.980,31.010
-0.580,-0.284,1.048,12.250,10.360,22.330
-0.495,-0.262,0.990,39.340,14.210,15.960
-0.438,-0.149,1.200,47.040,12.530,16.380
-0.453,-0.145,1.506,39.760,-19.460,15.960
-0.438,-0.125,1.410,35.490,-45.430,15.260
-0.390,-0.146,1.137,30.030,-55.020,13.020
-0.362,-0.114,1.012,14.840,-64.260,8.540
-0.344,-0.013,0.819,-0.490,-67.830,6.790
-0.328,0.220,0.646,-22.820,-60.760,25.690
-0.306,0.249,0.544,-36.050,-45.780,38.570
-0.301,0.012,0.577,-36.400,-27.860,37.660
-0.277,-0.172,0.740,-35.490,-18.830,28.280
-0.219,-0.016,0.940,-25.550,-18.130,22.470
-0.165,-0.056,1.094,-16.170,-27.300,20.650
-0.082,0.024,1.125,-14.560,-38.990,26.600
-0.038,0.090,1.175,-12.040,-47.600,38.290
-0.061,0.104,1.202,-18.900,-59.780,41.580
-0.102,0.144,1.176,-20.790,-69.160,47.670
-0.113,0.142,1.152,-14.700,-78.960,54.600
-0.172,-0.160,0.970,-13.300,-79.380,36.610
-0.145,-0.350,0.770,-14.560,-62.790,22.260
-0.021,-0.396,0.648,-7.140,-45.360,3.850
0.045,-0.399,0.752,-10.080,-31.780,-4.340
0.130,-0.313,0.895,-2.730,-22.890,-5.110
0.200,-0.270,1.220,-7.350,-32.480,17.290
0.225,-0.351,1.282,-9.520,-48.720,-0.560
0.177,-0.407,1.169,-6.930,-58.660,-7.700

0.344,-0.762,1.423,-15.050,10.430,-12.250
0.364,-0.582,1.411,-17.430,-7.420,-25.760
0.405,-0.347,1.119,-13.650,-9.380,-27.300
0.405,-0.275,0.963,-8.260,-1.260,-27.720
0.400,-0.191,0.943,-7.910,0.280,-25.410
0.394,-0.057,0.864,-17.640,6.860,-17.850
0.388,0.031,0.849,-18.620,19.250,-7.560
0.383,0.098,1.026,-17.500,17.080,6.860
0.392,0.101,1.038,-19.810,13.440,4.130
0.232,-1.849,-0.198,-10.920,104.580,-85.960
0.289,-0.160,0.517,64.120,144.900,-34.510
0.438,-0.159,1.314,51.380,107.100,-2.170
0.395,0.047,1.210,47.390,98.840,26.950
0.299,0.030,1.194,41.580,89.040,126.000
0.234,0.001,1.155,53.690,76.650,53.130
0.181,0.085,1.186,49.350,62.790,53.690
0.216,0.011,1.340,35.980,21.700,41.230
0.144,-0.146,1.624,-21.000,-14.490,19.950
0.130,-0.101,1.568,-91.210,-57.400,12.110
0.167,-0.109,1.393,-139.300,-95.550,16.240
0.181,-0.079,1.183,-162.400,-133.210,18.200
0.235,-0.019,0.872,-142.380,-144.760,16.380
0.241,0.066,0.819,-70.420,-156.450,29.330
0.270,-0.245,1.006,-98.980,-154.000,12.110
0.260,-0.094,0.560,15.400,-178.710,2.100
0.519,-0.223,0.250,-59.430,-64.330,-23.240
0.259,-2.182,-3.466,-2.450,323.260,-324.380
-0.284,1.733,6.905,-62.580,-10.080,-138.600
0.470,0.799,0.729,-13.510,-119.560,-61.110
0.319,0.327,0.789,3.430,-85.540,-40.810
0.181,-0.135,1.448,10.150,-110.600,-31.220
0.228,-0.059,1.286,28.280,-142.310,-18.130
0.267,-0.150,1.178,27.300,-127.190,-16.590
0.257,-0.139,1.177,40.110,-128.100,-10.710
0.269,0.037,1.462,48.370,-151.270,6.510
0.292,0.179,1.572,28.980,-176.890,27.090
0.278,0.046,0.991,34.650,-159.810,39.060
0.341,0.059,0.475,49.350,-26.460,50.960
0.077,-0.272,-1.017,50.890,321.230,1.680
0.299,-0.257,1.598,95.900,109.130,-0.560
0.234,-0.129,0.990,115.570,106.540,-17.500
0.189,-0.191,0.872,129.780,116.130,-41.860
0.168,-0.104,0.988,136.850,124.250,-57.890
0.173,-0.036,1.071,131.600,122.430,-64.890
0.205,0.014,1.097,126.630,114.030,-60.200
0.136,0.030,1.107,121.100,107.450,-64.960
0.210,0.045,1.044,120.610,114.030,-71.050
0.181,0.055,1.013,75.390,109.480,-69.650
0.253,-0.004,1.041,71.400,107.030,-64.960
0.245,0.058,1.043,41.230,106.680,-55.790
0.284,0.066,1.041,38.780,113.820,-43.470
0.209,0.132,1.149,27.930,115.080,-27.790
0.158,0.128,1.199,6.300,108.920,-6.300
0.105,0.125,1.213,-17.990,80.150,49.910
-0.201,-0.147,1.087,-17.500,45.080,123.970
-0.103,0.034,0.981,-52.710,4.270,81.410
-0.705,0.338,0.928,-34.860,-48.930,-70.070
-0.072,-0.119,1.059,-5.040,-22.050,-58.450
-0.065,0.042,1.067,-10.500,-13.020,-59.500
-0.045,0.022,0.979,-4.130,-8.190,-57.330
-0.039,-0.013,0.924,3.780,4.480,-49.630
0.062,-0.013,0.944,10.150,13.090,-42.770
0.051,0.015,0.971,12.460,17.990,-38.360
0.032,0.021,1.016,12.250,26.530,-43.330
0.015,0.029,1.044,10.010,40.180,-52.220
-0.049,0.054,1.081,7.280,48.930,-56.490
-0.115,0.040,1.057,6.720,46.620,-58.730
-0.126,0.016,1.009,8.330,41.930,-57.470
-0.111,0.005,0.996,10.150,37.800,-52.710
-0.101,0.006,1.018,10.710,31.500,-46.760
-0.063,0.011,1.011,9.520,27.790,-39.690
-0.068,0.014,0.993,10.010,23.450,-31.920
-0.076,0.021,1.010,8.750,17.990,-25.550
-0.062,0.027,1.037,7.770,8.960,-18.340
-0.048,0.043,1.067,4.690,5.180,-14.210
-0.056,0.043,1.068,3.850,2.030,-11.760
-0.066,0.077,1.061,6.160,0.630,-8.400
-0.092,0.077,1.037,8.540,-2.310,-8.540
-0.095,0.036,1.031,9.310,-7.280,-5.670
-0.084,0.028,1.045,5.670,-10.850,-0.280
-0.075,0.039,1.048,2.870,-11.690,2.450
-0.100,0.071,1.045,2.240,-6.720,-4.340
-0.108,0.057,1.064,1.890,-5.810,-9.730
-0.087,0.061,1.068,-0.140,-6.090,-11.900
-0.057,0.071,1.058,-0.980,-5.810,-11.620
-0.016,0.076,1.060,-0.910,-3.920,-10.780
0.018,0.060,1.047,-0.630,-3.220,-10.500
0.030,0.041,1.028,-0.980,-1.610,-7.420
0.012,0.034,1.017,0.210,-0.490,-5.460
-0.031,0.034,0.985,3.290,-0.910,-5.250
-0.042,0.041,0.989,6.650,-3.080,-4.970
-0.037,0.050,1.024,8.540,-5.600,-5.110
-0.021,0.041,1.033,7.980,-7.770,-4.130
-0.003,0.051,1.039,6.510,-9.870,-2.730
0.012,0.049,1.039,4.550,-11.060,17.150
0.030,0.043,1.046,1.260,-12.180,3.080
0.056,0.036,1.039,-2.030,-12.670,7.280
0.096,0.037,1.031,-4.550,-10.570,12.810
0.086,0.043,1.018,-5.880,-8.750,15.050
0.078,0.042,1.014,-6.790,-6.160,17.360
0.082,0.041,1.015,-7.560,-3.010,17.850
0.061,0.036,1.001,-7.140,-1.400,17.850
0.036,0.031,0.984,-4.970,-1.190,17.850
0.026,0.037,0.979,-1.260,-1.190,17.500
0.018,0.036,0.995,1.120,-0.490,14.630
0.018,0.043,1.002,2.240,1.330,12.880
0.016,0.047,1.007,3.640,4.130,11.270
0.020,0.038,1.017,4.410,7.070,10.570
0.021,0.038,1.028,4.200,8.050,11.270
0.019,0.045,1.035,2.660,8.050,12.600
0.008,0.040,1.036,0.140,6.930,15.120
-0.023,0.052,1.036,-1.820,5.250,16.730
-0.045,0.058,1.029,-2.520,3.570,18.410
-0.072,0.068,1.031,-1.890,1.750,18.060
-0.074,0.058,1.027,0.070,-0.350,17.290
-0.078,0.071,1.022,1.680,-1.050,14.980
-0.090,0.068,1.024,3.010,-1.540,11.480
-0.109,0.070,1.023,5.320,-1.330,5.670
-0.107,0.055,1.018,6.580,-1.260,1.890

